timestamp,gx,gy,gz,ax,ay,az
2671.73004194,-0.012456134,-0.0068484107,0.011397354,-0.05053297,0.03617745,-1.0059656
2671.73488953,-0.010325605,-0.004717882,0.010332089,-0.045406017,0.035689168,-1.0081629
2671.74006456,-0.012456134,-0.0057831462,0.011397354,-0.04687086,0.033980183,-1.0045007
2671.74489391,-0.012456134,-0.004717882,0.011397354,-0.048335705,0.0322712,-0.99986213
2671.75005282,-0.014586663,-0.0057831462,0.01246262,-0.049312267,0.033491902,-0.997909
2671.75488901,-0.012456134,-0.0057831462,0.010332089,-0.05077711,0.033736043,-0.99937385
2671.76003586,-0.012456134,-0.004717882,0.010332089,-0.05004469,0.034468465,-1.0001062
2671.76489035,-0.014586663,-0.0068484107,0.011397354,-0.04662672,0.035200886,-1.0027918
2671.77003935,-0.013521398,-0.0057831462,0.010332089,-0.047359142,0.035200886,-1.0047449
2671.774889,-0.0113908695,-0.0057831462,0.011397354,-0.047847424,0.033736043,-1.0057214
2671.78019477,-0.012456134,-0.0057831462,0.010332089,-0.04980055,0.031294636,-1.0001062
2671.78488956,-0.0113908695,-0.0036526173,0.010332089,-0.05028883,0.029341511,-0.9954676
2671.79005517,-0.015651926,-0.0057831462,0.01246262,-0.05077711,0.03275948,-0.99644417
2671.79488973,-0.014586663,-0.0057831462,0.010332089,-0.05004469,0.038130574,-1.0023035
2671.8000371,-0.013521398,-0.0057831462,0.010332089,-0.048335705,0.03690987,-1.0086511
2671.80488851,-0.015651926,-0.0036526173,0.01246262,-0.047847424,0.03300362,-1.0071863
2671.81003433,-0.016717192,-0.0036526173,0.011397354,-0.047603283,0.0322712,-1.0008386
2671.81489098,-0.015651926,-0.0036526173,0.011397354,-0.047847424,0.03324776,-0.9971766
2671.82005944,-0.015651926,-0.0057831462,0.011397354,-0.05053297,0.034956746,-0.9971766
2671.82489043,-0.015651926,-0.0036526173,0.009266827,-0.05077711,0.031782918,-1.0008386
2671.83005051,-0.014586663,-0.0057831462,0.011397354,-0.049312267,0.03324776,-1.001571
2671.8348898,-0.014586663,-0.0057831462,0.01246262,-0.04687086,0.037642293,-1.0030359
2671.84003804,-0.009260341,-0.004717882,0.010332089,-0.04687086,0.03617745,-1.004989
2671.84488914,-0.010325605,-0.0057831462,0.009266827,-0.048579846,0.030073933,-1.0052332
2671.85003771,-0.012456134,-0.0057831462,0.010332089,-0.05053297,0.030318074,-0.9988856
2671.85488886,-0.0113908695,-0.0057831462,0.010332089,-0.049312267,0.035689168,-0.9949793
2671.86005926,-0.013521398,-0.004717882,0.01246262,-0.05053297,0.035200886,-0.99815315
2671.86489024,-0.0113908695,-0.0057831462,0.010332089,-0.048579846,0.03275948,-1.0071863
2671.87004981,-0.014586663,-0.004717882,0.01246262,-0.04662672,0.034956746,-1.0076746
2671.87488894,-0.015651926,-0.0036526173,0.01246262,-0.048091564,0.034712605,-1.0023035
2671.88017214,-0.014586663,-0.004717882,0.011397354,-0.048823986,0.03202706,-0.99766487
2671.88489048,-0.013521398,-0.004717882,0.01246262,-0.049068127,0.031538777,-0.99522346
2671.89004785,-0.0071298117,-0.0068484107,0.011397354,-0.05028883,0.03324776,-1.0003504
2671.89489076,-0.009260341,-0.0057831462,0.01246262,-0.051265392,0.035445027,-1.0035242
2671.90006253,-0.009260341,-0.007913675,0.010332089,-0.048091564,0.034224324,-1.0059656
2671.9048911,-0.0113908695,-0.0068484107,0.011397354,-0.047115,0.033736043,-1.0037683
2671.91005103,-0.0113908695,-0.0057831462,0.009266827,-0.0458943,0.03275948,-1.0042566
2671.91488934,-0.0113908695,-0.0057831462,0.011397354,-0.04980055,0.031782918,-1.0018152
2671.92003682,-0.0113908695,-0.0057831462,0.010332089,-0.05028883,0.0322712,-0.99644417
2671.92488888,-0.0113908695,-0.0057831462,0.009266827,-0.05077711,0.034468465,-0.99644417
2671.93003682,-0.013521398,-0.0057831462,0.011397354,-0.048579846,0.034468465,-1.0010828
2671.93489166,-0.0113908695,-0.0068484107,0.011397354,-0.04687086,0.034224324,-1.0081629
2671.94005865,-0.0113908695,-0.0068484107,0.010332089,-0.04687086,0.033736043,-1.0081629
2671.94488902,-0.015651926,-0.004717882,0.01246262,-0.048335705,0.03324776,-1.0013269
2671.95004836,-0.012456134,-0.004717882,0.011397354,-0.049312267,0.03324776,-0.9959559
2671.95488891,-0.009260341,-0.0068484107,0.01246262,-0.049312267,0.031050496,-0.99693245
2671.96003722,-0.010325605,-0.0057831462,0.011397354,-0.05053297,0.03324776,-1.0018152
2671.96489054,-0.0113908695,-0.0068484107,0.010332089,-0.048823986,0.037642293,-1.00328
2671.97003644,-0.008195076,-0.0057831462,0.010332089,-0.047359142,0.035200886,-1.0027918
2671.97488829,-0.016717192,-0.0036526173,0.010332089,-0.047359142,0.03300362,-1.0030359
2671.98021489,-0.013521398,-0.004717882,0.011397354,-0.047847424,0.031294636,-1.001571
2671.98488978,-0.010325605,-0.004717882,0.010332089,-0.048823986,0.030562215,-0.9991297
2671.99074521,-0.012456134,-0.0057831462,0.011397354,-0.05077711,0.034468465,-0.9962
2671.99488926,-0.012456134,-0.0057831462,0.011397354,-0.05053297,0.035689168,-0.99864143
2672.00004052,-0.012456134,-0.0068484107,0.010332089,-0.047847424,0.033491902,-1.0069422
2672.004889,-0.017782457,-0.0057831462,0.011397354,-0.04687086,0.03642159,-1.0088953
2672.01003811,-0.014586663,-0.004717882,0.011397354,-0.047359142,0.034224324,-1.0064539
2672.01488966,-0.010325605,-0.0068484107,0.01246262,-0.048823986,0.0322712,-0.9988856
2672.0200613,-0.01884772,-0.0057831462,0.013527885,-0.05028883,0.029829793,-0.99400276
2672.02488983,-0.014586663,-0.0057831462,0.011397354,-0.049312267,0.033736043,-0.9974207
2672.03004844,-0.013521398,-0.0057831462,0.011397354,-0.049556408,0.03666573,-1.0025476
2672.0348894,-0.015651926,-0.0057831462,0.011397354,-0.048335705,0.034956746,-1.0054773
2672.04003742,-0.010325605,-0.004717882,0.011397354,-0.047603283,0.03324776,-1.0035242
2672.04488913,-0.014586663,-0.004717882,0.01246262,-0.047359142,0.033736043,-1.001571
2672.05003682,-0.014586663,-0.0057831462,0.01246262,-0.049556408,0.03202706,-1.001571
2672.0548932,-0.016717192,-0.0057831462,0.011397354,-0.05028883,0.033980183,-0.9983973
2672.06006339,-0.0113908695,-0.0068484107,0.009266827,-0.05004469,0.034224324,-0.9983973
2672.06488994,-0.0113908695,-0.0068484107,0.010332089,-0.049312267,0.035689168,-1.0023035
2672.07005332,-0.0113908695,-0.0057831462,0.010332089,-0.045406017,0.037642293,-1.0052332
2672.07488807,-0.013521398,-0.004717882,0.011397354,-0.04638258,0.034712605,-1.006698
2672.0801723,-0.015651926,-0.004717882,0.011397354,-0.048335705,0.031538777,-1.0027918
2672.08488898,-0.015651926,-0.0036526173,0.013527885,-0.04980055,0.03275948,-0.9959559
2672.09004674,-0.0113908695,-0.0068484107,0.010332089,-0.048823986,0.03300362,-0.9959559
2672.09489078,-0.012456134,-0.0057831462,0.011397354,-0.05077711,0.034224324,-1.0008386
2672.10006058,-0.012456134,-0.0057831462,0.010332089,-0.05028883,0.035200886,-1.0076746
2672.10489467,-0.013521398,-0.0057831462,0.010332089,-0.04687086,0.034712605,-1.004989
2672.11004873,-0.0113908695,-0.004717882,0.010332089,-0.04687086,0.035445027,-1.0027918
2672.11488911,-0.016717192,-0.0057831462,0.01246262,-0.047603283,0.030806355,-1.0008386
2672.12003662,-0.014586663,-0.004717882,0.011397354,-0.04980055,0.029341511,-0.99864143
2672.12488911,-0.010325605,-0.0057831462,0.010332089,-0.05102125,0.034712605,-0.997909
2672.13003666,-0.012456134,-0.0057831462,0.013527885,-0.049312267,0.03715401,-0.9983973
2672.13489128,-0.013521398,-0.0057831462,0.011397354,-0.04687086,0.034712605,-1.0042566
2672.14006297,-0.014586663,-0.0068484107,0.011397354,-0.047115,0.03324776,-1.0074304
2672.14489017,-0.013521398,-0.0057831462,0.011397354,-0.047847424,0.034712605,-1.0076746
2672.15004921,-0.0071298117,-0.004717882,0.011397354,-0.049312267,0.03324776,-1.0003504
2672.15488998,-0.010325605,-0.004717882,0.01246262,-0.05053297,0.030806355,-0.9947352
2672.16003693,-0.010325605,-0.004717882,0.011397354,-0.05028883,0.031782918,-0.99766487
2672.16488914,-0.012456134,-0.004717882,0.011397354,-0.049312267,0.034224324,-1.0035242
2672.17003694,-0.013521398,-0.004717882,0.01246262,-0.048823986,0.03617745,-1.0071863
2672.17488937,-0.0113908695,-0.004717882,0.010332089,-0.047603283,0.034224324,-1.0040125
2672.18019825,-0.010325605,-0.004717882,0.011397354,-0.047847424,0.031050496,-1.0003504
2672.18489086,-0.0113908695,-0.004717882,0.010332089,-0.047847424,0.031294636,-0.9983973
2672.19005427,-0.012456134,-0.004717882,0.01246262,-0.048823986,0.03300362,-0.9983973
2672.19488915,-0.013521398,-0.0068484107,0.010332089,-0.05077711,0.033491902,-0.99986213
2672.20003682,-0.014586663,-0.0057831462,0.011397354,-0.04980055,0.034224324,-1.0027918
2672.20489002,-0.016717192,-0.004717882,0.011397354,-0.04662672,0.035689168,-1.0057214
2672.21003682,-0.015651926,-0.004717882,0.011397354,-0.048579846,0.035689168,-1.0071863
2672.21489059,-0.013521398,-0.004717882,0.01246262,-0.048091564,0.0322712,-1.0037683
2672.2200608,-0.013521398,-0.0057831462,0.010332089,-0.049312267,0.029585652,-0.99571174
2672.22488952,-0.013521398,-0.0036526173,0.011397354,-0.051265392,0.03275948,-0.9930262
2672.23004765,-0.016717192,-0.0057831462,0.011397354,-0.049556408,0.035689168,-0.99937385
2672.23488848,-0.015651926,-0.0057831462,0.009266827,-0.05004469,0.034224324,-1.0071863
2672.24003662,-0.013521398,-0.0057831462,0.011397354,-0.047359142,0.034712605,-1.0069422
2672.24488981,-0.014586663,-0.0036526173,0.011397354,-0.047847424,0.034712605,-1.0023035
2672.25003892,-0.014586663,-0.0057831462,0.01246262,-0.048335705,0.031294636,-1.0005945
2672.25488968,-0.014586663,-0.0057831462,0.011397354,-0.048823986,0.03300362,-0.9988856
2672.26005966,-0.015651926,-0.004717882,0.011397354,-0.05053297,0.033491902,-1.0003504
2672.2648893,-0.014586663,-0.0068484107,0.011397354,-0.049556408,0.035200886,-1.0003504
2672.27004841,-0.013521398,-0.004717882,0.011397354,-0.048091564,0.03642159,-1.00328
2672.2748896,-0.015651926,-0.004717882,0.011397354,-0.0458943,0.034468465,-1.0054773
2672.28017198,-0.014586663,-0.004717882,0.011397354,-0.047847424,0.03324776,-1.0047449
2672.28489008,-0.014586663,-0.004717882,0.011397354,-0.049312267,0.0322712,-1.0003504
2672.2900473,-0.013521398,-0.0036526173,0.010332089,-0.05102125,0.03275948,-0.99449104
2672.29489162,-0.012456134,-0.0057831462,0.010332089,-0.05053297,0.034224324,-0.9954676
2672.30006178,-0.015651926,-0.0057831462,0.010332089,-0.049556408,0.035200886,-1.0037683
2672.30489246,-0.017782457,-0.0068484107,0.010332089,-0.04687086,0.03690987,-1.0096277
2672.3100488,-0.008195076,-0.0057831462,0.009266827,-0.047115,0.03617745,-1.0052332
2672.3148907,-0.014586663,-0.004717882,0.010332089,-0.04638258,0.0322712,-1.0010828
2672.32003694,-0.01884772,-0.0057831462,0.01246262,-0.048335705,0.031782918,-0.9962
2672.32488903,-0.013521398,-0.0057831462,0.010332089,-0.049556408,0.033980183,-0.99644417
2672.33003646,-0.0113908695,-0.007913675,0.01246262,-0.05077711,0.03324776,-1.0003504
2672.33489087,-0.013521398,-0.007913675,0.011397354,-0.05028883,0.034224324,-1.00328
2672.34005899,-0.0113908695,-0.0068484107,0.011397354,-0.047847424,0.035689168,-1.0030359
2672.34489046,-0.0113908695,-0.0057831462,0.011397354,-0.04687086,0.033736043,-1.0062097
2672.35004783,-0.013521398,-0.0068484107,0.01246262,-0.04980055,0.03324776,-1.0037683
2672.35489052,-0.015651926,-0.0036526173,0.01246262,-0.049312267,0.03202706,-0.9983973
2672.36003721,-0.013521398,-0.0057831462,0.010332089,-0.05077711,0.03324776,-0.9966883
2672.36489282,-0.0113908695,-0.0057831462,0.011397354,-0.05004469,0.035689168,-0.99693245
2672.37003832,-0.0113908695,-0.0057831462,0.01246262,-0.047115,0.034224324,-1.006698
2672.37489048,-0.014586663,-0.004717882,0.011397354,-0.04638258,0.034956746,-1.0076746
2672.38024602,-0.015651926,-0.0036526173,0.011397354,-0.047603283,0.034468465,-1.0035242
2672.38489028,-0.016717192,-0.0036526173,0.011397354,-0.047847424,0.031538777,-0.9983973
2672.39005845,-0.013521398,-0.0057831462,0.010332089,-0.049312267,0.0322712,-0.99522346
2672.3948913,-0.012456134,-0.0057831462,0.011397354,-0.051753674,0.03202706,-1.0001062
2672.40003824,-0.015651926,-0.004717882,0.011397354,-0.05077711,0.035689168,-1.0027918
2672.4048903,-0.012456134,-0.004717882,0.011397354,-0.048823986,0.035445027,-1.0057214
2672.41003798,-0.012456134,-0.004717882,0.011397354,-0.048091564,0.03324776,-1.0037683
2672.41488829,-0.014586663,-0.004717882,0.01246262,-0.047115,0.0322712,-1.0035242
2672.42006214,-0.016717192,-0.004717882,0.011397354,-0.048823986,0.03275948,-1.0003504
2672.42489118,-0.0113908695,-0.004717882,0.009266827,-0.048335705,0.031050496,-0.9966883
2672.43004682,-0.0113908695,-0.0068484107,0.010332089,-0.05102125,0.033736043,-0.99571174
2672.4348915,-0.012456134,-0.0057831462,0.011397354,-0.048823986,0.035689168,-1.0003504
2672.44003845,-0.016717192,-0.004717882,0.013527885,-0.047603283,0.035689168,-1.0071863
2672.44488965,-0.010325605,-0.004717882,0.011397354,-0.048091564,0.034468465,-1.0079187
2672.4500389,-0.010325605,-0.004717882,0.011397354,-0.049312267,0.03202706,-1.0010828
2672.4548904,-0.0113908695,-0.004717882,0.011397354,-0.047603283,0.030806355,-0.99644417
2672.46006192,-0.015651926,-0.0057831462,0.011397354,-0.051997814,0.031294636,-0.9971766
2672.46489134,-0.015651926,-0.0057831462,0.009266827,-0.049556408,0.034956746,-1.0018152
2672.47005103,-0.013521398,-0.0068484107,0.011397354,-0.05028883,0.035689168,-1.0057214
2672.47489022,-0.013521398,-0.0057831462,0.011397354,-0.047847424,0.03300362,-1.0042566
2672.48017144,-0.014586663,-0.0057831462,0.013527885,-0.0458943,0.034224324,-1.0023035
2672.48489005,-0.013521398,-0.0057831462,0.010332089,-0.04980055,0.03275948,-1.0013269
2672.49004628,-0.013521398,-0.0057831462,0.010332089,-0.05004469,0.030806355,-0.9988856
2672.49489011,-0.013521398,-0.0036526173,0.010332089,-0.051509533,0.03300362,-0.99693245
2672.50006276,-0.014586663,-0.004717882,0.011397354,-0.048823986,0.035689168,-0.9983973
2672.50489031,-0.015651926,-0.004717882,0.01246262,-0.048579846,0.03593331,-1.0057214
2672.51004954,-0.012456134,-0.004717882,0.010332089,-0.04638258,0.035689168,-1.0088953
2672.51488933,-0.016717192,-0.004717882,0.011397354,-0.048335705,0.03324776,-1.0064539
2672.52003935,-0.015651926,-0.0025873529,0.011397354,-0.049068127,0.030806355,-0.997909
2672.52488962,-0.015651926,-0.004717882,0.01246262,-0.049312267,0.031782918,-0.9925379
2672.53003692,-0.014586663,-0.0057831462,0.011397354,-0.04980055,0.033736043,-0.9988856
2672.53489252,-0.012456134,-0.0068484107,0.01246262,-0.049556408,0.03593331,-1.0042566
2672.54006009,-0.013521398,-0.0057831462,0.01246262,-0.049312267,0.035200886,-1.006698
2672.54489126,-0.0113908695,-0.0057831462,0.011397354,-0.04613844,0.035689168,-1.00328
2672.55005135,-0.01884772,-0.004717882,0.010332089,-0.04662672,0.034224324,-1.0023035
2672.55489001,-0.01884772,-0.004717882,0.010332089,-0.048091564,0.030806355,-1.0013269
2672.56003893,-0.014586663,-0.004717882,0.010332089,-0.05077711,0.034712605,-0.9971766
2672.5648903,-0.014586663,-0.004717882,0.010332089,-0.05077711,0.034712605,-0.9971766
2672.57003682,-0.013521398,-0.004717882,0.01246262,-0.047115,0.03617745,-1.0062097
2672.57489192,-0.013521398,-0.004717882,0.01246262,-0.047115,0.03617745,-1.0062097
2672.58019413,-0.009260341,-0.0057831462,0.010332089,-0.047847424,0.031538777,-1.0025476
2672.5848904,-0.013521398,-0.0057831462,0.011397354,-0.05077711,0.03300362,-0.9947352
2672.5900562,-0.010325605,-0.0057831462,0.008201562,-0.051265392,0.034224324,-0.99693245
2672.59489025,-0.0113908695,-0.0068484107,0.011397354,-0.05004469,0.035200886,-1.0023035
2672.60003753,-0.012456134,-0.0068484107,0.010332089,-0.048823986,0.034712605,-1.0076746
2672.60489027,-0.012456134,-0.0068484107,0.01246262,-0.047359142,0.035200886,-1.0057214
2672.61003903,-0.016717192,-0.004717882,0.010332089,-0.048335705,0.034712605,-1.0008386
2672.61489099,-0.014586663,-0.004717882,0.011397354,-0.047359142,0.03300362,-0.9991297
2672.62005754,-0.013521398,-0.004717882,0.009266827,-0.047847424,0.031050496,-0.9983973
2672.62489052,-0.0113908695,-0.0036526173,0.011397354,-0.048823986,0.03275948,-0.99937385
2672.63005209,-0.0113908695,-0.0057831462,0.011397354,-0.05077711,0.03666573,-0.9988856
2672.63488983,-0.010325605,-0.0068484107,0.01246262,-0.04687086,0.03715401,-1.0040125
2672.6400354,-0.0113908695,-0.004717882,0.010332089,-0.047847424,0.033491902,-1.0071863
2672.64489103,-0.014586663,-0.004717882,0.011397354,-0.04687086,0.031538777,-1.0062097
2672.65003767,-0.015651926,-0.0057831462,0.011397354,-0.049312267,0.0322712,-0.99986213
2672.65489103,-0.010325605,-0.0057831462,0.01246262,-0.049556408,0.0322712,-0.99400276
2672.66006281,-0.010325605,-0.0057831462,0.009266827,-0.051265392,0.03275948,-0.9988856
2672.66488946,-0.014586663,-0.004717882,0.010332089,-0.048823986,0.034224324,-1.0054773
2672.67005178,-0.0113908695,-0.0036526173,0.011397354,-0.047847424,0.035445027,-1.0071863
2672.67489046,-0.010325605,-0.0057831462,0.010332089,-0.044673596,0.03617745,-1.0027918
2672.68017119,-0.012456134,-0.0057831462,0.01246262,-0.049068127,0.030806355,-0.99937385
2672.6848899,-0.014586663,-0.004717882,0.011397354,-0.049312267,0.030806355,-0.9988856
2672.6900473,-0.0113908695,-0.007913675,0.013527885,-0.04980055,0.03251534,-0.9988856
2672.69489166,-0.015651926,-0.0068484107,0.010332089,-0.051265392,0.033736043,-1.0003504
2672.70006128,-0.014586663,-0.0057831462,0.011397354,-0.04980055,0.034956746,-1.0027918
2672.70489102,-0.013521398,-0.0068484107,0.010332089,-0.04687086,0.034956746,-1.0047449
2672.71005166,-0.004999283,-0.004717882,0.010332089,-0.047847424,0.03300362,-1.0079187
2672.7148901,-0.009260341,-0.004717882,0.010332089,-0.049556408,0.034224324,-1.0035242
2672.7200383,-0.0113908695,-0.0036526173,0.010332089,-0.047847424,0.03275948,-0.9954676
2672.72489113,-0.012456134,-0.004717882,0.010332089,-0.048579846,0.03324776,-0.9935145
2672.73017964,-0.013521398,-0.0057831462,0.01246262,-0.04980055,0.034956746,-1.0003504
2672.73489134,-0.013521398,-0.0057831462,0.011397354,-0.04980055,0.035689168,-1.0062097
2672.74006198,-0.0113908695,-0.0036526173,0.010332089,-0.04662672,0.037642293,-1.0081629
2672.7448921,-0.010325605,-0.0057831462,0.009266827,-0.048335705,0.033736043,-1.0027918
2672.75004935,-0.012456134,-0.0057831462,0.01246262,-0.048335705,0.030073933,-0.99986213
2672.7549023,-0.016717192,-0.0057831462,0.01246262,-0.049556408,0.034468465,-0.997909
2672.76004094,-0.014586663,-0.0068484107,0.01246262,-0.05077711,0.035689168,-1.0005945
2672.76489066,-0.009260341,-0.004717882,0.011397354,-0.05028883,0.034712605,-1.0020593
2672.77003861,-0.0113908695,-0.004717882,0.011397354,-0.047359142,0.03324776,-1.0025476
2672.77489135,-0.015651926,-0.004717882,0.01246262,-0.04687086,0.03324776,-1.0037683
2672.78019333,-0.013521398,-0.0036526173,0.01246262,-0.047359142,0.03617745,-1.0037683
2672.78489059,-0.016717192,-0.0025873529,0.01246262,-0.05077711,0.03275948,-1.001571
2672.79005995,-0.014586663,-0.0036526173,0.011397354,-0.048335705,0.030562215,-0.9959559
2672.79489029,-0.012456134,-0.0057831462,0.010332089,-0.049556408,0.034956746,-0.9966883
2672.80003895,-0.015651926,-0.0068484107,0.01246262,-0.05028883,0.03617745,-1.0047449
2672.8048901,-0.013521398,-0.0068484107,0.010332089,-0.048335705,0.03617745,-1.0091394
2672.81003893,-0.010325605,-0.0068484107,0.011397354,-0.04613844,0.034224324,-1.0059656
2672.81489086,-0.013521398,-0.0057831462,0.011397354,-0.047359142,0.030806355,-0.9988856
2672.82006378,-0.014586663,-0.004717882,0.011397354,-0.049068127,0.030318074,-0.9949793
2672.82489242,-0.013521398,-0.0057831462,0.01246262,-0.05053297,0.033980183,-0.9971766
2672.83004877,-0.0113908695,-0.0057831462,0.010332089,-0.051753674,0.034224324,-1.0013269
2672.83489134,-0.012456134,-0.0057831462,0.013527885,-0.049556408,0.034712605,-1.0052332
2672.84003894,-0.013521398,-0.004717882,0.011397354,-0.047847424,0.034712605,-1.0037683
2672.84489282,-0.015651926,-0.004717882,0.01246262,-0.045650158,0.035689168,-1.0052332
2672.850034,-0.01884772,-0.0036526173,0.013527885,-0.048823986,0.033736043,-1.0037683
2672.85489119,-0.012456134,-0.004717882,0.010332089,-0.04980055,0.029829793,-0.99864143
2672.86006159,-0.014586663,-0.004717882,0.010332089,-0.05028883,0.03324776,-0.9947352
2672.86489114,-0.012456134,-0.0057831462,0.010332089,-0.049312267,0.03593331,-0.997909
2672.87005698,-0.008195076,-0.0068484107,0.009266827,-0.047603283,0.035445027,-1.0071863
2672.87489024,-0.009260341,-0.0068484107,0.011397354,-0.048335705,0.03324776,-1.0098718
2672.88017666,-0.013521398,-0.004717882,0.011397354,-0.048579846,0.03300362,-1.0037683
2672.8848915,-0.012456134,-0.0057831462,0.011397354,-0.049068127,0.03275948,-0.9962
2672.89004666,-0.015651926,-0.0057831462,0.011397354,-0.049312267,0.03275948,-0.9949793
2672.89489162,-0.015651926,-0.0057831462,0.011397354,-0.051265392,0.0322712,-1.0003504
2672.90006318,-0.012456134,-0.0057831462,0.011397354,-0.05004469,0.034224324,-1.0054773
2672.90489087,-0.0113908695,-0.0068484107,0.01246262,-0.048335705,0.035689168,-1.0045007
2672.91004962,-0.014586663,-0.0057831462,0.01246262,-0.047115,0.034712605,-1.0047449
2672.91488993,-0.014586663,-0.0057831462,0.011397354,-0.04687086,0.03324776,-1.0045007
2672.9200394,-0.0113908695,-0.0057831462,0.008201562,-0.047847424,0.030562215,-1.0008386
2672.92489044,-0.009260341,-0.0057831462,0.011397354,-0.04980055,0.0322712,-0.9962
2672.93003657,-0.012456134,-0.0057831462,0.01246262,-0.051265392,0.03642159,-0.9949793
2672.9348915,-0.012456134,-0.0057831462,0.010332089,-0.049556408,0.03642159,-1.0018152
2672.94006492,-0.010325605,-0.0068484107,0.01246262,-0.04687086,0.035200886,-1.0096277
2672.94489086,-0.012456134,-0.0057831462,0.010332089,-0.047359142,0.033736043,-1.0079187
2672.950054,-0.0113908695,-0.004717882,0.010332089,-0.048335705,0.0322712,-1.0020593
2672.95489268,-0.015651926,-0.004717882,0.011397354,-0.051265392,0.03324776,-0.99449104
2672.96003678,-0.013521398,-0.004717882,0.01246262,-0.05028883,0.03300362,-0.9974207
2672.96489071,-0.009260341,-0.0057831462,0.010332089,-0.049556408,0.0322712,-1.0037683
2672.97003906,-0.012456134,-0.004717882,0.010332089,-0.04980055,0.03593331,-1.004989
2672.97489271,-0.012456134,-0.004717882,0.010332089,-0.04638258,0.03593331,-1.0027918
2672.98021464,-0.009260341,-0.0068484107,0.011397354,-0.047359142,0.03324776,-1.0005945
2672.98489015,-0.0113908695,-0.004717882,0.013527885,-0.048823986,0.02909737,-1.0020593
2672.99074848,-0.014586663,-0.0057831462,0.01246262,-0.049312267,0.030806355,-0.999618
2672.99488946,-0.0113908695,-0.0057831462,0.010332089,-0.05004469,0.03666573,-0.99644417
2673.00004385,-0.0113908695,-0.0057831462,0.011397354,-0.05077711,0.035689168,-0.9983973
2673.00489453,-0.013521398,-0.0057831462,0.011397354,-0.048335705,0.03300362,-1.0071863
2673.01003862,-0.012456134,-0.0057831462,0.010332089,-0.047359142,0.03617745,-1.0098718
2673.0148923,-0.014586663,-0.0057831462,0.010332089,-0.048335705,0.035445027,-1.0047449
2673.02006323,-0.016717192,-0.0057831462,0.011397354,-0.048335705,0.0322712,-0.99571174
2673.02489119,-0.013521398,-0.004717882,0.009266827,-0.05077711,0.030562215,-0.9930262
2673.03005375,-0.014586663,-0.004717882,0.011397354,-0.051265392,0.033736043,-0.99815315
2673.03489066,-0.013521398,-0.0057831462,0.013527885,-0.04980055,0.03715401,-1.0071863
2673.04003714,-0.014586663,-0.0057831462,0.01246262,-0.049312267,0.035445027,-1.0059656
2673.04489062,-0.012456134,-0.004717882,0.011397354,-0.04662672,0.033491902,-1.0027918
2673.05003767,-0.0113908695,-0.0068484107,0.010332089,-0.048579846,0.031294636,-1.0023035
2673.05489198,-0.012456134,-0.004717882,0.011397354,-0.048335705,0.03275948,-0.99986213
2673.06006408,-0.014586663,-0.004717882,0.01246262,-0.04980055,0.034468465,-0.997909
2673.06489597,-0.012456134,-0.004717882,0.01246262,-0.051265392,0.03324776,-0.99644417
2673.07005079,-0.012456134,-0.007913675,0.01246262,-0.049068127,0.035689168,-1.0013269
2673.07489246,-0.012456134,-0.0068484107,0.011397354,-0.0458943,0.035689168,-1.006698
2673.08017417,-0.015651926,-0.004717882,0.011397354,-0.04980055,0.03275948,-1.0076746
2673.08489013,-0.016717192,-0.0057831462,0.01246262,-0.049068127,0.03251534,-1.0013269
2673.09004662,-0.014586663,-0.0036526173,0.011397354,-0.048579846,0.030806355,-0.99400276
2673.09489086,-0.012456134,-0.0057831462,0.011397354,-0.05004469,0.030073933,-0.9959559
2673.10006176,-0.012456134,-0.004717882,0.013527885,-0.05028883,0.03715401,-1.0020593
2673.10489303,-0.014586663,-0.0068484107,0.011397354,-0.047603283,0.037642293,-1.0086511
2673.11005096,-0.0113908695,-0.0068484107,0.011397354,-0.04638258,0.034468465,-1.0052332
2673.11489128,-0.010325605,-0.0057831462,0.011397354,-0.04687086,0.033736043,-1.0005945
2673.12003804,-0.017782457,-0.004717882,0.011397354,-0.04638258,0.031050496,-1.0008386
2673.12489142,-0.0113908695,-0.0057831462,0.011397354,-0.05004469,0.0322712,-0.99937385
2673.1300379,-0.010325605,-0.004717882,0.011397354,-0.051997814,0.033491902,-0.9991297
2673.1348911,-0.016717192,-0.004717882,0.011397354,-0.05077711,0.034224324,-0.9983973
2673.14006157,-0.013521398,-0.0057831462,0.011397354,-0.04662672,0.03593331,-1.00328
2673.14489215,-0.010325605,-0.004717882,0.010332089,-0.047359142,0.035445027,-1.0076746
2673.15005178,-0.010325605,-0.0036526173,0.011397354,-0.048335705,0.03275948,-1.0074304
2673.15489047,-0.012456134,-0.004717882,0.010332089,-0.05028883,0.031782918,-0.99815315
2673.16003866,-0.012456134,-0.0057831462,0.01246262,-0.049068127,0.03300362,-0.9930262
2673.16489178,-0.012456134,-0.0057831462,0.014593147,-0.05004469,0.034712605,-0.99864143
2673.17004166,-0.013521398,-0.0057831462,0.011397354,-0.047847424,0.03666573,-1.0062097
2673.17489255,-0.013521398,-0.0057831462,0.011397354,-0.048091564,0.034468465,-1.0076746
2673.18019698,-0.013521398,-0.004717882,0.011397354,-0.047115,0.034956746,-1.0023035
2673.1848916,-0.014586663,-0.004717882,0.011397354,-0.049068127,0.0322712,-0.997909
2673.19005925,-0.012456134,-0.0057831462,0.01246262,-0.048823986,0.030073933,-0.9983973
2673.19489135,-0.013521398,-0.004717882,0.010332089,-0.052486096,0.0322712,-1.0003504
2673.20003895,-0.0113908695,-0.0057831462,0.010332089,-0.05102125,0.034468465,-0.99937385
2673.20489607,-0.014586663,-0.0057831462,0.011397354,-0.049556408,0.035445027,-1.0023035
2673.21003947,-0.015651926,-0.004717882,0.01246262,-0.047115,0.03324776,-1.0052332
2673.21490216,-0.0113908695,-0.0036526173,0.010332089,-0.047359142,0.03251534,-1.0076746
2673.22006602,-0.016717192,-0.0036526173,0.011397354,-0.047847424,0.03324776,-1.00328
2673.22489015,-0.009260341,-0.0057831462,0.011397354,-0.048335705,0.031782918,-0.9942469
2673.23004905,-0.009260341,-0.0068484107,0.011397354,-0.049556408,0.0322712,-0.9942469
2673.2348913,-0.012456134,-0.0068484107,0.011397354,-0.051265392,0.034224324,-1.001571
2673.24004163,-0.0113908695,-0.0057831462,0.01246262,-0.05028883,0.03690987,-1.0091394
2673.24489199,-0.0113908695,-0.0057831462,0.011397354,-0.047115,0.03715401,-1.0074304
2673.2500365,-0.012456134,-0.0068484107,0.011397354,-0.049556408,0.031782918,-1.0023035
2673.25489214,-0.012456134,-0.004717882,0.011397354,-0.049312267,0.030806355,-0.9988856
2673.26006602,-0.0113908695,-0.004717882,0.011397354,-0.05028883,0.033736043,-0.9988856
2673.26489128,-0.012456134,-0.0057831462,0.01246262,-0.05102125,0.034468465,-1.0020593
2673.27005385,-0.013521398,-0.0057831462,0.013527885,-0.049556408,0.035445027,-1.0003504
2673.27489242,-0.017782457,-0.004717882,0.01246262,-0.047359142,0.033736043,-1.0023035
2673.28017301,-0.013521398,-0.004717882,0.010332089,-0.04662672,0.034224324,-1.004989
2673.28489134,-0.012456134,-0.004717882,0.011397354,-0.048579846,0.034468465,-1.0057214
2673.29005134,-0.015651926,-0.004717882,0.011397354,-0.05028883,0.030806355,-0.9988856
2673.29489251,-0.015651926,-0.0036526173,0.01246262,-0.049556408,0.031294636,-0.9937586
2673.30006303,-0.014586663,-0.0057831462,0.01246262,-0.049556408,0.03593331,-0.99693245
2673.30489198,-0.015651926,-0.0068484107,0.01246262,-0.049312267,0.03617745,-1.0071863
2673.31004749,-0.014586663,-0.004717882,0.01246262,-0.047603283,0.035200886,-1.010116
2673.31489142,-0.016717192,-0.0036526173,0.01246262,-0.047847424,0.034468465,-1.0037683
2673.32003738,-0.013521398,-0.004717882,0.01246262,-0.048091564,0.031782918,-0.99766487
2673.32489078,-0.0113908695,-0.0068484107,0.011397354,-0.048335705,0.033980183,-0.99571174
2673.3300381,-0.012456134,-0.0057831462,0.01246262,-0.05028883,0.034224324,-0.999618
2673.3348913,-0.014586663,-0.004717882,0.011397354,-0.05077711,0.033736043,-1.0018152
2673.34006126,-0.012456134,-0.0057831462,0.011397354,-0.049312267,0.035689168,-1.0025476
2673.34489178,-0.009260341,-0.0057831462,0.011397354,-0.04638258,0.03690987,-1.0027918
2673.3500508,-0.013521398,-0.004717882,0.01246262,-0.04638258,0.034712605,-1.0057214
2673.35489102,-0.013521398,-0.004717882,0.010332089,-0.05028883,0.031050496,-1.0042566
2673.36004029,-0.012456134,-0.004717882,0.010332089,-0.04980055,0.030806355,-0.99644417
2673.36489048,-0.014586663,-0.0068484107,0.011397354,-0.04980055,0.034468465,-0.99449104
2673.37003714,-0.015651926,-0.0068484107,0.01246262,-0.049556408,0.034224324,-0.99986213
2673.37489166,-0.013521398,-0.0068484107,0.010332089,-0.048823986,0.034468465,-1.0091394
2673.38024406,-0.009260341,-0.0057831462,0.009266827,-0.04687086,0.035689168,-1.0081629
2673.38489135,-0.013521398,-0.0057831462,0.009266827,-0.047359142,0.03275948,-1.0001062
2673.39005587,-0.0113908695,-0.004717882,0.010332089,-0.049312267,0.031294636,-0.9959559
2673.39489126,-0.009260341,-0.004717882,0.011397354,-0.049312267,0.031294636,-0.99644417
2673.40004053,-0.013521398,-0.0057831462,0.010332089,-0.05053297,0.03275948,-1.0025476
2673.40489273,-0.017782457,-0.004717882,0.013527885,-0.05028883,0.03593331,-1.0027918
2673.41003837,-0.014586663,-0.0057831462,0.011397354,-0.048335705,0.034956746,-1.0035242
2673.41489198,-0.013521398,-0.0057831462,0.011397354,-0.044917736,0.035200886,-1.0040125
2673.42006384,-0.0071298117,-0.0057831462,0.010332089,-0.047359142,0.03275948,-1.0057214
2673.42489275,-0.009260341,-0.004717882,0.011397354,-0.048823986,0.029829793,-1.0003504
2673.43004978,-0.012456134,-0.0068484107,0.011397354,-0.051753674,0.031782918,-0.9942469
2673.43489198,-0.016717192,-0.0057831462,0.011397354,-0.051265392,0.033736043,-0.9935145
2673.44003793,-0.015651926,-0.0057831462,0.010332089,-0.04980055,0.035445027,-1.0047449
2673.44489082,-0.0113908695,-0.0068484107,0.011397354,-0.048091564,0.034224324,-1.0098718
2673.45003851,-0.013521398,-0.004717882,0.01246262,-0.047847424,0.03300362,-1.0064539
2673.45489162,-0.017782457,-0.0025873529,0.010332089,-0.048335705,0.031782918,-0.999618
2673.46006182,-0.013521398,-0.004717882,0.01246262,-0.049068127,0.034712605,-0.9947352
2673.46489315,-0.013521398,-0.0057831462,0.010332089,-0.05004469,0.03202706,-1.0003504
2673.47005248,-0.015651926,-0.004717882,0.011397354,-0.04980055,0.034224324,-1.0035242
2673.47489343,-0.012456134,-0.0057831462,0.01246262,-0.04980055,0.03715401,-1.0025476
2673.48017361,-0.013521398,-0.004717882,0.011397354,-0.048335705,0.0322712,-1.0042566
2673.48489237,-0.013521398,-0.004717882,0.011397354,-0.048335705,0.0322712,-1.0042566
2673.49004666,-0.009260341,-0.0036526173,0.01246262,-0.04980055,0.0322712,-0.99815315
2673.49489058,-0.009260341,-0.0036526173,0.01246262,-0.04980055,0.0322712,-0.99815315
2673.50006455,-0.013521398,-0.0057831462,0.011397354,-0.051265392,0.034712605,-1.0005945
2673.50489214,-0.013521398,-0.0057831462,0.011397354,-0.051265392,0.034712605,-1.0005945
2673.51005369,-0.013521398,-0.004717882,0.011397354,-0.048335705,0.034712605,-1.0088953
2673.51489131,-0.012456134,-0.004717882,0.011397354,-0.048823986,0.031294636,-1.0023035
2673.52003888,-0.014586663,-0.0057831462,0.01246262,-0.048823986,0.031294636,-0.9954676
2673.52489185,-0.0113908695,-0.0057831462,0.009266827,-0.048823986,0.03275948,-0.99400276
2673.53003875,-0.009260341,-0.0068484107,0.010332089,-0.05028883,0.034224324,-1.0023035
2673.53489182,-0.014586663,-0.0068484107,0.01246262,-0.049068127,0.034224324,-1.0054773
2673.54006182,-0.012456134,-0.0057831462,0.011397354,-0.047847424,0.033980183,-1.0037683
2673.54489008,-0.016717192,-0.0057831462,0.011397354,-0.045650158,0.035445027,-1.0020593
2673.55005098,-0.015651926,-0.004717882,0.013527885,-0.048579846,0.03251534,-1.0042566
2673.55489176,-0.014586663,-0.004717882,0.011397354,-0.049068127,0.031538777,-1.00328
2673.56003973,-0.012456134,-0.0036526173,0.010332089,-0.05004469,0.03324776,-0.99644417
2673.56489119,-0.014586663,-0.0068484107,0.009266827,-0.04980055,0.034224324,-0.9954676
2673.57003981,-0.014586663,-0.004717882,0.011397354,-0.049312267,0.035689168,-1.0027918
2673.57489135,-0.014586663,-0.0036526173,0.011397354,-0.047359142,0.03617745,-1.0091394
2673.58019429,-0.014586663,-0.0057831462,0.013527885,-0.047115,0.03275948,-1.0069422
2673.58489246,-0.015651926,-0.004717882,0.011397354,-0.048335705,0.03275948,-0.9974207
2673.59005726,-0.0113908695,-0.004717882,0.011397354,-0.048823986,0.031782918,-0.99400276
2673.59489257,-0.010325605,-0.0057831462,0.011397354,-0.05028883,0.033736043,-0.99937385
2673.60004208,-0.014586663,-0.0068484107,0.01246262,-0.048823986,0.037642293,-1.0052332
2673.60489174,-0.015651926,-0.0068484107,0.011397354,-0.049068127,0.034712605,-1.0071863
2673.61004006,-0.015651926,-0.004717882,0.010332089,-0.04638258,0.034224324,-1.0037683
2673.61489166,-0.013521398,-0.0036526173,0.011397354,-0.047847424,0.034712605,-1.0020593
2673.62006077,-0.016717192,-0.004717882,0.011397354,-0.048335705,0.03275948,-1.00328
2673.62489166,-0.015651926,-0.004717882,0.010332089,-0.05004469,0.03300362,-0.99815315
2673.6300513,-0.0113908695,-0.004717882,0.011397354,-0.04980055,0.033736043,-0.99522346
2673.63489214,-0.012456134,-0.0068484107,0.010332089,-0.049312267,0.034224324,-0.9988856
2673.64003831,-0.014586663,-0.007913675,0.011397354,-0.047847424,0.035689168,-1.0062097
2673.64489295,-0.012456134,-0.0057831462,0.010332089,-0.047847424,0.033736043,-1.0103601
2673.65004004,-0.0113908695,-0.0057831462,0.011397354,-0.047847424,0.03251534,-1.0045007
2673.6548923,-0.010325605,-0.004717882,0.01246262,-0.04980055,0.03202706,-0.9959559
2673.66006272,-0.0113908695,-0.0036526173,0.011397354,-0.048579846,0.031782918,-0.9937586
2673.66489248,-0.012456134,-0.004717882,0.010332089,-0.05028883,0.035445027,-1.0013269
2673.67005539,-0.010325605,-0.0057831462,0.011397354,-0.04980055,0.035445027,-1.0062097
2673.67489222,-0.0071298117,-0.004717882,0.011397354,-0.049068127,0.034956746,-1.0037683
2673.68017205,-0.013521398,-0.004717882,0.011397354,-0.04638258,0.034224324,-1.0008386
2673.68489277,-0.014586663,-0.0036526173,0.011397354,-0.048335705,0.031294636,-1.0027918
2673.69004646,-0.013521398,-0.0057831462,0.011397354,-0.04980055,0.030562215,-1.0027918
2673.69489102,-0.013521398,-0.0036526173,0.01246262,-0.051997814,0.033980183,-0.99986213
2673.70006323,-0.013521398,-0.004717882,0.010332089,-0.05004469,0.034712605,-0.9974207
2673.70489349,-0.009260341,-0.007913675,0.010332089,-0.047603283,0.03593331,-1.0027918
2673.71005008,-0.013521398,-0.004717882,0.010332089,-0.04638258,0.034712605,-1.0081629
2673.7148928,-0.015651926,-0.0036526173,0.011397354,-0.04687086,0.03275948,-1.006698
2673.72004144,-0.015651926,-0.0025873529,0.01246262,-0.049312267,0.033736043,-0.997909
2673.72489134,-0.0113908695,-0.0057831462,0.010332089,-0.048823986,0.0322712,-0.99204963
2673.73012194,-0.008195076,-0.0068484107,0.010332089,-0.05004469,0.030806355,-0.99644417
2673.73489048,-0.014586663,-0.004717882,0.01246262,-0.051265392,0.035200886,-1.0047449
2673.74009506,-0.016717192,-0.0036526173,0.013527885,-0.049312267,0.037886433,-1.0071863
2673.74489158,-0.016717192,-0.004717882,0.01246262,-0.04687086,0.035689168,-1.0042566
2673.75005141,-0.015651926,-0.004717882,0.011397354,-0.049556408,0.031050496,-1.0005945
2673.7548921,-0.012456134,-0.0057831462,0.010332089,-0.048823986,0.0322712,-1.0005945
2673.7600382,-0.012456134,-0.0057831462,0.010332089,-0.048091564,0.034468465,-1.0003504
2673.76489194,-0.012456134,-0.0057831462,0.011397354,-0.051265392,0.03324776,-0.9988856
2673.77004146,-0.014586663,-0.0036526173,0.011397354,-0.05028883,0.033736043,-0.99937385
2673.77489182,-0.013521398,-0.0057831462,0.010332089,-0.047359142,0.03617745,-1.0047449
2673.78019764,-0.010325605,-0.0057831462,0.010332089,-0.04638258,0.03617745,-1.0086511
2673.78489134,-0.009260341,-0.0036526173,0.010332089,-0.047603283,0.03275948,-1.0054773
2673.79005698,-0.013521398,-0.0036526173,0.011397354,-0.05077711,0.02885323,-0.99644417
2673.79489125,-0.015651926,-0.0036526173,0.013527885,-0.05077711,0.0322712,-0.99327034
2673.80003903,-0.012456134,-0.0057831462,0.011397354,-0.04980055,0.03642159,-0.9988856
2673.80489162,-0.012456134,-0.0068484107,0.01246262,-0.05053297,0.035445027,-1.0103601
2673.81003757,-0.015651926,-0.004717882,0.01246262,-0.047847424,0.03593331,-1.008407
2673.81489221,-0.013521398,-0.004717882,0.011397354,-0.047847424,0.03324776,-1.0013269
2673.82006504,-0.0113908695,-0.0057831462,0.010332089,-0.048335705,0.03300362,-0.99864143
2673.82489238,-0.014586663,-0.004717882,0.01246262,-0.048335705,0.03275948,-0.99864143
2673.83005246,-0.015651926,-0.004717882,0.010332089,-0.049312267,0.030318074,-0.99986213
2673.83489166,-0.009260341,-0.0068484107,0.010332089,-0.05077711,0.03300362,-0.997909
2673.84004048,-0.010325605,-0.0068484107,0.009266827,-0.047847424,0.03617745,-1.0003504
2673.84489126,-0.010325605,-0.0068484107,0.010332089,-0.047603283,0.034712605,-1.0052332
2673.8500371,-0.012456134,-0.004717882,0.011397354,-0.047603283,0.03251534,-1.0088953
2673.8548923,-0.01884772,-0.0057831462,0.011397354,-0.049068127,0.031050496,-1.0037683
2673.86006342,-0.012456134,-0.004717882,0.009266827,-0.051265392,0.031782918,-0.9935145
2673.86489214,-0.012456134,-0.0057831462,0.01246262,-0.05077711,0.035200886,-0.99449104
2673.87005125,-0.013521398,-0.0057831462,0.011397354,-0.05028883,0.033980183,-1.00328
2673.87489198,-0.013521398,-0.0057831462,0.010332089,-0.04662672,0.033736043,-1.0091394
2673.8801761,-0.0071298117,-0.0068484107,0.011397354,-0.047115,0.034224324,-1.0047449
2673.88489287,-0.01884772,-0.004717882,0.011397354,-0.04662672,0.03324776,-0.9983973
2673.89004873,-0.012456134,-0.004717882,0.010332089,-0.049312267,0.031294636,-0.997909
2673.89489159,-0.012456134,-0.0036526173,0.01246262,-0.05077711,0.03324776,-1.0005945
2673.90006746,-0.013521398,-0.0057831462,0.010332089,-0.05077711,0.034224324,-1.0018152
2673.9048921,-0.0113908695,-0.0057831462,0.011397354,-0.049312267,0.03642159,-1.0010828
2673.91005096,-0.012456134,-0.0068484107,0.010332089,-0.048335705,0.034468465,-1.0025476
2673.91489166,-0.015651926,-0.004717882,0.011397354,-0.047359142,0.03275948,-1.006698
2673.9200421,-0.009260341,-0.004717882,0.011397354,-0.048091564,0.03324776,-1.0047449
2673.92489011,-0.014586663,-0.0036526173,0.011397354,-0.049556408,0.030806355,-0.99693245
2673.93003933,-0.013521398,-0.0057831462,0.011397354,-0.05028883,0.031538777,-0.9935145
2673.93489135,-0.0113908695,-0.0057831462,0.008201562,-0.05053297,0.034956746,-0.99766487
2673.94005911,-0.013521398,-0.004717882,0.01246262,-0.049312267,0.035445027,-1.0088953
2673.94489178,-0.013521398,-0.0036526173,0.011397354,-0.048091564,0.03617745,-1.0086511
2673.9500471,-0.016717192,-0.0036526173,0.011397354,-0.047847424,0.033491902,-1.00328
2673.95489226,-0.015651926,-0.004717882,0.011397354,-0.04662672,0.031294636,-0.9983973
2673.96004086,-0.012456134,-0.004717882,0.011397354,-0.049068127,0.0322712,-0.9966883
2673.96489208,-0.013521398,-0.0057831462,0.011397354,-0.05102125,0.03275948,-1.0008386
2673.97004009,-0.010325605,-0.0057831462,0.011397354,-0.05028883,0.035689168,-1.0008386
2673.97489176,-0.0113908695,-0.0057831462,0.01246262,-0.047359142,0.035689168,-1.0020593
2673.98021372,-0.0113908695,-0.0068484107,0.011397354,-0.04662672,0.035200886,-1.0023035
2673.98489237,-0.013521398,-0.0057831462,0.010332089,-0.04687086,0.034224324,-1.0062097
2673.99074902,-0.014586663,-0.004717882,0.011397354,-0.049068127,0.03202706,-1.0027918
2673.99489214,-0.009260341,-0.0057831462,0.010332089,-0.049312267,0.031782918,-0.9949793
2674.0000434,-0.008195076,-0.0057831462,0.011397354,-0.051265392,0.03275948,-0.99522346
2674.00489408,-0.013521398,-0.0057831462,0.010332089,-0.049556408,0.034712605,-1.0027918
2674.01004114,-0.012456134,-0.0057831462,0.010332089,-0.04638258,0.037642293,-1.010116
2674.01489182,-0.012456134,-0.0057831462,0.009266827,-0.047847424,0.035200886,-1.0071863
2674.02006662,-0.010325605,-0.0057831462,0.010332089,-0.047847424,0.030318074,-1.0001062
2674.02489198,-0.010325605,-0.004717882,0.011397354,-0.047847424,0.031782918,-0.9949793
2674.03004954,-0.012456134,-0.0036526173,0.011397354,-0.04980055,0.03324776,-0.997909
2674.03489151,-0.016717192,-0.004717882,0.01246262,-0.04980055,0.034468465,-1.0023035
2674.04003785,-0.014586663,-0.0068484107,0.01246262,-0.05028883,0.035445027,-1.0040125
2674.04489168,-0.010325605,-0.0057831462,0.011397354,-0.047603283,0.035200886,-1.0023035
2674.05003847,-0.010325605,-0.004717882,0.009266827,-0.047359142,0.034224324,-1.0040125
2674.05489231,-0.013521398,-0.0057831462,0.010332089,-0.049312267,0.03202706,-1.0064539
2674.06006099,-0.0113908695,-0.0057831462,0.010332089,-0.05004469,0.031782918,-0.99986213
2674.06489256,-0.010325605,-0.004717882,0.011397354,-0.05028883,0.03202706,-0.9954676
2674.07005277,-0.009260341,-0.0057831462,0.010332089,-0.05053297,0.034224324,-0.9966883
2674.0748928,-0.014586663,-0.004717882,0.01246262,-0.048579846,0.035689168,-1.0059656
2674.0801738,-0.012456134,-0.0068484107,0.01246262,-0.047115,0.03593331,-1.0106043
2674.08489182,-0.010325605,-0.0068484107,0.011397354,-0.047359142,0.03300362,-1.0042566
2674.09004825,-0.012456134,-0.004717882,0.011397354,-0.048335705,0.030806355,-0.99693245
2674.09489166,-0.013521398,-0.0057831462,0.011397354,-0.05028883,0.031782918,-0.9942469
2674.10006214,-0.013521398,-0.0036526173,0.011397354,-0.049068127,0.034224324,-1.0020593
2674.10489274,-0.008195076,-0.004717882,0.01246262,-0.05077711,0.03715401,-1.0045007
2674.11004874,-0.013521398,-0.0057831462,0.01246262,-0.048335705,0.034712605,-1.0052332
2674.11489305,-0.014586663,-0.0057831462,0.01246262,-0.04662672,0.033736043,-1.0023035
2674.1200388,-0.012456134,-0.0068484107,0.010332089,-0.048823986,0.034956746,-1.0025476
2674.12489289,-0.014586663,-0.0057831462,0.010332089,-0.049312267,0.03202706,-1.0018152
2674.13004043,-0.016717192,-0.004717882,0.011397354,-0.048823986,0.030806355,-0.997909
2674.13489198,-0.019912984,-0.0036526173,0.01246262,-0.051265392,0.03300362,-0.9949793
2674.1400623,-0.017782457,-0.0057831462,0.013527885,-0.049068127,0.03593331,-0.9991297
2674.14489162,-0.010325605,-0.0068484107,0.011397354,-0.047847424,0.03642159,-1.0086511
2674.1500523,-0.010325605,-0.0057831462,0.010332089,-0.048335705,0.033491902,-1.0106043
2674.15489128,-0.015651926,-0.0025873529,0.010332089,-0.048579846,0.0322712,-1.00328
2674.1600392,-0.015651926,-0.004717882,0.010332089,-0.049556408,0.0322712,-0.99449104
2674.16489288,-0.014586663,-0.004717882,0.013527885,-0.049556408,0.0322712,-0.9949793
2674.17003844,-0.010325605,-0.0057831462,0.011397354,-0.05077711,0.035445027,-1.0020593
2674.17489259,-0.013521398,-0.004717882,0.010332089,-0.05004469,0.035200886,-1.006698
2674.1801973,-0.015651926,-0.0057831462,0.011397354,-0.047847424,0.035200886,-1.00328
2674.18489353,-0.015651926,-0.004717882,0.01246262,-0.04613844,0.034224324,-1.0013269
2674.19006041,-0.016717192,-0.004717882,0.010332089,-0.049068127,0.031294636,-1.0025476
2674.19489194,-0.015651926,-0.0036526173,0.01246262,-0.04980055,0.03202706,-1.0010828
2674.20003978,-0.015651926,-0.0036526173,0.01246262,-0.05077711,0.033736043,-0.997909
2674.20489206,-0.014586663,-0.004717882,0.010332089,-0.048823986,0.035200886,-0.9974207
2674.21003773,-0.012456134,-0.0068484107,0.010332089,-0.048335705,0.035200886,-1.0035242
2674.21489169,-0.015651926,-0.0057831462,0.01246262,-0.04687086,0.035689168,-1.0091394
2674.22006083,-0.014586663,-0.004717882,0.013527885,-0.047359142,0.03251534,-1.0064539
2674.22489283,-0.013521398,-0.0057831462,0.01246262,-0.048823986,0.031782918,-0.9971766
2674.23005331,-0.012456134,-0.0057831462,0.011397354,-0.048335705,0.0322712,-0.9925379
2674.23489297,-0.012456134,-0.004717882,0.011397354,-0.049312267,0.033491902,-0.99815315
2674.24003934,-0.0113908695,-0.004717882,0.01246262,-0.05077711,0.03593331,-1.0057214
2674.24490509,-0.012456134,-0.0057831462,0.01246262,-0.049312267,0.035200886,-1.006698
2674.25003715,-0.012456134,-0.004717882,0.011397354,-0.047359142,0.034224324,-1.0018152
2674.25489198,-0.015651926,-0.0057831462,0.011397354,-0.048579846,0.03324776,-1.0005945
2674.26006651,-0.012456134,-0.0057831462,0.011397354,-0.047115,0.03251534,-1.0018152
2674.26489194,-0.0113908695,-0.0057831462,0.01246262,-0.05028883,0.03324776,-0.99937385
2674.27005226,-0.0113908695,-0.0057831462,0.010332089,-0.051753674,0.033491902,-0.997909
2674.27489427,-0.012456134,-0.0068484107,0.011397354,-0.04980055,0.03715401,-0.9988856
2674.28017287,-0.015651926,-0.004717882,0.01246262,-0.04638258,0.03593331,-1.0062097
2674.28489182,-0.010325605,-0.004717882,0.011397354,-0.048335705,0.03275948,-1.0086511
2674.29004826,-0.010325605,-0.0057831462,0.010332089,-0.04980055,0.031538777,-1.0042566
2674.29489281,-0.008195076,-0.0057831462,0.011397354,-0.05053297,0.031294636,-0.9937586
2674.30006354,-0.012456134,-0.0057831462,0.011397354,-0.048823986,0.03324776,-0.99449104
2674.30489256,-0.0113908695,-0.0057831462,0.011397354,-0.051265392,0.034224324,-1.0018152
2674.31005342,-0.012456134,-0.0057831462,0.010332089,-0.048823986,0.03642159,-1.0093836
2674.31489287,-0.013521398,-0.0036526173,0.010332089,-0.0458943,0.037642293,-1.0059656
2674.32003924,-0.013521398,-0.0057831462,0.011397354,-0.04638258,0.03300362,-1.001571
2674.32489372,-0.017782457,-0.0036526173,0.011397354,-0.048335705,0.029829793,-0.99937385
2674.33003758,-0.012456134,-0.0057831462,0.01246262,-0.048335705,0.03275948,-0.997909
2674.33489198,-0.009260341,-0.0068484107,0.011397354,-0.05077711,0.03324776,-0.9988856
2674.34006349,-0.014586663,-0.0057831462,0.01246262,-0.051265392,0.034224324,-0.997909
2674.34489265,-0.015651926,-0.004717882,0.010332089,-0.048335705,0.034468465,-1.0035242
2674.35004982,-0.014586663,-0.0057831462,0.011397354,-0.047359142,0.034712605,-1.0079187
2674.35489289,-0.013521398,-0.004717882,0.011397354,-0.048335705,0.035200886,-1.0076746
2674.36003877,-0.014586663,-0.0036526173,0.010332089,-0.05028883,0.030318074,-1.0018152
2674.3648923,-0.013521398,-0.004717882,0.011397354,-0.04980055,0.030318074,-0.9922938
2674.37004087,-0.015651926,-0.0057831462,0.01246262,-0.048579846,0.034224324,-0.9962
2674.37489313,-0.010325605,-0.0057831462,0.011397354,-0.049312267,0.034712605,-1.0054773
2674.38024865,-0.015651926,-0.004717882,0.011397354,-0.047847424,0.033980183,-1.0027918
2674.38489173,-0.015651926,-0.004717882,0.011397354,-0.047847424,0.033980183,-1.0027918
2674.39005916,-0.012456134,-0.004717882,0.011397354,-0.048091564,0.03275948,-0.999618
2674.39489225,-0.015651926,-0.004717882,0.011397354,-0.05004469,0.03275948,-0.9988856
2674.40004194,-0.013521398,-0.004717882,0.010332089,-0.05028883,0.03251534,-1.0005945
2674.40489353,-0.012456134,-0.004717882,0.010332089,-0.05053297,0.034712605,-1.0008386
2674.41003778,-0.01884772,-0.0057831462,0.01246262,-0.049556408,0.03666573,-1.0003504
2674.4148926,-0.016717192,-0.004717882,0.013527885,-0.047115,0.03642159,-1.0047449
2674.42006662,-0.013521398,-0.004717882,0.01246262,-0.048091564,0.03251534,-1.0047449
2674.42489299,-0.013521398,-0.004717882,0.01246262,-0.048091564,0.03251534,-1.0047449
2674.43005091,-0.010325605,-0.0068484107,0.011397354,-0.049556408,0.03275948,-0.9918055
2674.43489332,-0.010325605,-0.0068484107,0.011397354,-0.049556408,0.03275948,-0.9918055
2674.44003994,-0.013521398,-0.0057831462,0.011397354,-0.04980055,0.03617745,-1.0091394
2674.44489342,-0.012456134,-0.0057831462,0.011397354,-0.047847424,0.035689168,-1.0076746
2674.45003684,-0.012456134,-0.0036526173,0.011397354,-0.048091564,0.03300362,-1.0018152
2674.45489335,-0.013521398,-0.0036526173,0.010332089,-0.048823986,0.031294636,-0.997909
2674.46006231,-0.0113908695,-0.0057831462,0.011397354,-0.05028883,0.0322712,-0.997909
2674.46489257,-0.010325605,-0.004717882,0.010332089,-0.05028883,0.034224324,-0.99986213
2674.47005715,-0.0113908695,-0.0068484107,0.010332089,-0.049312267,0.035200886,-1.0010828
2674.47489325,-0.015651926,-0.0057831462,0.011397354,-0.047847424,0.033491902,-1.0018152
2674.4801756,-0.010325605,-0.004717882,0.011397354,-0.04638258,0.034712605,-1.0052332
2674.4848938,-0.0113908695,-0.004717882,0.011397354,-0.047847424,0.034956746,-1.0062097
2674.49004846,-0.010325605,-0.0057831462,0.010332089,-0.048823986,0.030562215,-1.0025476
2674.49489255,-0.012456134,-0.0057831462,0.010332089,-0.05053297,0.030318074,-0.99327034
2674.5000665,-0.015651926,-0.004717882,0.011397354,-0.05028883,0.034712605,-0.9942469
2674.50489259,-0.013521398,-0.004717882,0.011397354,-0.049312267,0.03642159,-1.0037683
2674.51004794,-0.012456134,-0.0057831462,0.01246262,-0.047359142,0.03617745,-1.010116
2674.51489272,-0.015651926,-0.004717882,0.01246262,-0.047847424,0.03324776,-1.0054773
2674.52003945,-0.014586663,-0.004717882,0.010332089,-0.047359142,0.031294636,-0.9983973
2674.52489242,-0.0113908695,-0.0036526173,0.010332089,-0.048335705,0.031294636,-0.99571174
2674.53003826,-0.010325605,-0.004717882,0.011397354,-0.048823986,0.031782918,-0.99864143
2674.53489214,-0.012456134,-0.0057831462,0.01246262,-0.051753674,0.033736043,-1.0018152
2674.54006463,-0.0113908695,-0.004717882,0.01246262,-0.05053297,0.03593331,-1.0037683
2674.54489258,-0.0113908695,-0.0068484107,0.011397354,-0.047115,0.03642159,-1.0030359
2674.55005239,-0.009260341,-0.0057831462,0.011397354,-0.04638258,0.034712605,-1.0064539
2674.554894,-0.0113908695,-0.0057831462,0.01246262,-0.048579846,0.031294636,-1.0062097
2674.56004093,-0.013521398,-0.0036526173,0.010332089,-0.048823986,0.031782918,-0.9983973
2674.5648916,-0.013521398,-0.004717882,0.01246262,-0.05028883,0.035689168,-0.99327034
2674.57004301,-0.013521398,-0.0057831462,0.009266827,-0.048823986,0.034224324,-0.99693245
2674.57489331,-0.010325605,-0.0057831462,0.01246262,-0.047847424,0.034224324,-1.0076746
2674.5801975,-0.017782457,-0.004717882,0.01246262,-0.047603283,0.035689168,-1.0088953
2674.58489334,-0.01884772,-0.004717882,0.01246262,-0.047359142,0.033980183,-1.00328
2674.59005685,-0.014586663,-0.004717882,0.011397354,-0.04980055,0.03251534,-0.9959559
2674.59489268,-0.014586663,-0.004717882,0.010332089,-0.049312267,0.031050496,-0.99644417
2674.60004246,-0.0113908695,-0.004717882,0.010332089,-0.04980055,0.034224324,-1.0023035
2674.60489379,-0.015651926,-0.0057831462,0.013527885,-0.05028883,0.03666573,-1.0045007
2674.6100401,-0.01884772,-0.0057831462,0.011397354,-0.048091564,0.03593331,-1.0027918
2674.6148924,-0.014586663,-0.0068484107,0.01246262,-0.04662672,0.034468465,-1.0020593
2674.62006312,-0.012456134,-0.0057831462,0.011397354,-0.047359142,0.031050496,-1.00328
2674.62489364,-0.015651926,-0.004717882,0.01246262,-0.049312267,0.031538777,-1.0025476
2674.6300519,-0.010325605,-0.0036526173,0.010332089,-0.049312267,0.033736043,-0.99571174
2674.63489315,-0.017782457,-0.004717882,0.011397354,-0.04980055,0.03324776,-0.99522346
2674.64004162,-0.013521398,-0.0068484107,0.011397354,-0.05053297,0.035200886,-1.001571
2674.64489447,-0.012456134,-0.0057831462,0.011397354,-0.048335705,0.035689168,-1.0096277
2674.65003889,-0.013521398,-0.0036526173,0.010332089,-0.048579846,0.034712605,-1.0096277
2674.6548946,-0.015651926,-0.004717882,0.011397354,-0.048335705,0.03275948,-1.0008386
2674.66006559,-0.012456134,-0.004717882,0.011397354,-0.047847424,0.030318074,-0.99400276
2674.66489266,-0.010325605,-0.0057831462,0.011397354,-0.049556408,0.03251534,-0.99693245
2674.67005207,-0.013521398,-0.0057831462,0.01246262,-0.05053297,0.035689168,-1.0018152
2674.67489309,-0.012456134,-0.0057831462,0.01246262,-0.049312267,0.034224324,-1.0057214
2674.68017469,-0.016717192,-0.004717882,0.01246262,-0.04662672,0.03324776,-1.0037683
2674.68489454,-0.015651926,-0.0057831462,0.011397354,-0.047359142,0.033736043,-1.00328
2674.69005246,-0.0113908695,-0.0057831462,0.010332089,-0.047359142,0.033491902,-1.0037683
2674.69489313,-0.012456134,-0.004717882,0.010332089,-0.05028883,0.031538777,-0.999618
2674.70006351,-0.015651926,-0.0057831462,0.011397354,-0.05004469,0.031782918,-0.9974207
2674.7048965,-0.014586663,-0.0068484107,0.01246262,-0.049312267,0.033736043,-0.99693245
2674.71005628,-0.014586663,-0.0068484107,0.01246262,-0.048579846,0.034956746,-1.0047449
2674.71489344,-0.0113908695,-0.0068484107,0.01246262,-0.048091564,0.033980183,-1.010116
2674.7200413,-0.0071298117,-0.004717882,0.011397354,-0.048091564,0.03275948,-1.0052332
2674.72489391,-0.013521398,-0.0036526173,0.011397354,-0.048823986,0.031782918,-0.99644417
2674.73004322,-0.014586663,-0.004717882,0.010332089,-0.04980055,0.03202706,-0.9930262
2674.73489287,-0.015651926,-0.004717882,0.01246262,-0.04980055,0.03324776,-0.99937385
2674.74007086,-0.016717192,-0.004717882,0.011397354,-0.051509533,0.035200886,-1.0052332
2674.7448927,-0.015651926,-0.0057831462,0.011397354,-0.048091564,0.03593331,-1.0062097
2674.75004891,-0.012456134,-0.0057831462,0.010332089,-0.047115,0.03275948,-1.00328
2674.75489257,-0.015651926,-0.004717882,0.01246262,-0.04687086,0.031538777,-1.0023035
2674.76004176,-0.0113908695,-0.0057831462,0.011397354,-0.05028883,0.03300362,-1.0010828
2674.76489307,-0.0113908695,-0.0057831462,0.010332089,-0.049068127,0.03251534,-0.99937385
2674.77004431,-0.015651926,-0.0057831462,0.010332089,-0.051509533,0.033736043,-0.9959559
2674.77489205,-0.015651926,-0.0057831462,0.01246262,-0.047847424,0.035200886,-1.0003504
2674.78019893,-0.013521398,-0.004717882,0.011397354,-0.048091564,0.03593331,-1.0054773
2674.78489271,-0.010325605,-0.004717882,0.010332089,-0.04662672,0.034712605,-1.0081629
2674.79005946,-0.012456134,-0.004717882,0.010332089,-0.049312267,0.031782918,-1.0023035
2674.79489306,-0.013521398,-0.0057831462,0.011397354,-0.048823986,0.030562215,-0.9935145
2674.80003865,-0.012456134,-0.0057831462,0.011397354,-0.04980055,0.033980183,-0.9959559
2674.80489226,-0.0113908695,-0.0068484107,0.011397354,-0.05102125,0.035689168,-1.00328
2674.81003618,-0.013521398,-0.0057831462,0.01246262,-0.048823986,0.03617745,-1.0103601
2674.8148936,-0.013521398,-0.004717882,0.010332089,-0.0458943,0.034712605,-1.0042566
2674.82006698,-0.010325605,-0.0068484107,0.010332089,-0.047603283,0.03275948,-0.99986213
2674.82489428,-0.012456134,-0.0036526173,0.011397354,-0.049068127,0.031050496,-0.9988856
2674.83005198,-0.014586663,-0.0036526173,0.011397354,-0.049068127,0.0322712,-0.999618
2674.83489361,-0.012456134,-0.0057831462,0.011397354,-0.05028883,0.034956746,-0.99937385
2674.8400396,-0.0113908695,-0.0068484107,0.01246262,-0.04980055,0.035445027,-0.997909
2674.84489283,-0.016717192,-0.004717882,0.013527885,-0.048823986,0.034956746,-1.0030359
2674.85003874,-0.016717192,-0.0057831462,0.011397354,-0.047115,0.034468465,-1.0081629
2674.8548933,-0.014586663,-0.0036526173,0.011397354,-0.047847424,0.035200886,-1.0081629
2674.86006246,-0.014586663,-0.004717882,0.01246262,-0.049312267,0.031294636,-0.9988856
2674.86489306,-0.012456134,-0.0068484107,0.010332089,-0.049312267,0.030806355,-0.9922938
2674.8700555,-0.0113908695,-0.0057831462,0.010332089,-0.05077711,0.034956746,-0.99571174
2674.87489328,-0.013521398,-0.0068484107,0.010332089,-0.05028883,0.03690987,-1.0047449
2674.88017506,-0.012456134,-0.0036526173,0.011397354,-0.048091564,0.033491902,-1.0093836
2674.8848929,-0.014586663,-0.004717882,0.01246262,-0.04687086,0.033491902,-1.0035242
2674.89005279,-0.013521398,-0.004717882,0.01246262,-0.04687086,0.03324776,-0.9983973
2674.89489311,-0.013521398,-0.0068484107,0.010332089,-0.049556408,0.03275948,-0.997909
2674.90006458,-0.012456134,-0.0057831462,0.011397354,-0.051509533,0.031782918,-1.0005945
2674.90489316,-0.014586663,-0.004717882,0.01246262,-0.049556408,0.034224324,-1.0005945
2674.91005143,-0.014586663,-0.0057831462,0.01246262,-0.047847424,0.03617745,-1.0013269
2674.91489321,-0.013521398,-0.0068484107,0.01246262,-0.047115,0.035445027,-1.0054773
2674.92004045,-0.014586663,-0.004717882,0.010332089,-0.047359142,0.03324776,-1.0076746
2674.92489368,-0.014586663,-0.004717882,0.009266827,-0.05004469,0.0322712,-1.0052332
2674.93003947,-0.012456134,-0.004717882,0.011397354,-0.049312267,0.031782918,-0.99400276
2674.93489491,-0.012456134,-0.0057831462,0.011397354,-0.05004469,0.033491902,-0.99327034
2674.94006571,-0.012456134,-0.004717882,0.010332089,-0.04980055,0.033736043,-0.999618
2674.94489551,-0.013521398,-0.004717882,0.01246262,-0.048579846,0.034468465,-1.010116
2674.95005407,-0.01884772,-0.0057831462,0.01246262,-0.048335705,0.035689168,-1.0081629
2674.9548927,-0.008195076,-0.0057831462,0.010332089,-0.047603283,0.033736043,-1.0013269
2674.960042,-0.010325605,-0.0057831462,0.010332089,-0.048091564,0.030562215,-0.9983973
2674.96489389,-0.0113908695,-0.0057831462,0.01246262,-0.049068127,0.031782918,-0.99815315
2674.97004333,-0.012456134,-0.0068484107,0.011397354,-0.05077711,0.033980183,-1.0008386
2674.97489362,-0.012456134,-0.004717882,0.010332089,-0.051509533,0.035200886,-1.0010828
2674.98021676,-0.014586663,-0.004717882,0.010332089,-0.048335705,0.035445027,-1.0027918
2674.98489455,-0.009260341,-0.0057831462,0.010332089,-0.045406017,0.03324776,-1.0047449
2674.9907493,-0.016717192,-0.0036526173,0.011397354,-0.047115,0.031294636,-1.0059656
2674.99489408,-0.013521398,-0.004717882,0.013527885,-0.05077711,0.031050496,-1.0018152
2675.00004198,-0.012456134,-0.004717882,0.010332089,-0.051265392,0.03275948,-0.99400276
2675.0048958,-0.013521398,-0.0036526173,0.013527885,-0.051753674,0.033736043,-0.99522346
2675.0100394,-0.013521398,-0.004717882,0.011397354,-0.047603283,0.03593331,-1.0037683
2675.01489275,-0.015651926,-0.0057831462,0.011397354,-0.04687086,0.03617745,-1.010116
2675.02006922,-0.012456134,-0.0057831462,0.011397354,-0.048335705,0.035445027,-1.0057214
2675.02489331,-0.012456134,-0.0057831462,0.011397354,-0.047603283,0.03275948,-0.99815315
2675.03005537,-0.016717192,-0.0057831462,0.01246262,-0.049312267,0.030806355,-0.99449104
2675.03489317,-0.014586663,-0.004717882,0.011397354,-0.048823986,0.03251534,-0.9991297
2675.04004264,-0.013521398,-0.0057831462,0.011397354,-0.05028883,0.035200886,-1.0013269
2675.04489361,-0.015651926,-0.0057831462,0.011397354,-0.05028883,0.033736043,-1.0042566
2675.05004055,-0.014586663,-0.0057831462,0.01246262,-0.047359142,0.034956746,-1.0045007
2675.05489351,-0.015651926,-0.0057831462,0.01246262,-0.04638258,0.03666573,-1.0047449
2675.06006618,-0.014586663,-0.0057831462,0.011397354,-0.048579846,0.033736043,-1.0037683
2675.06489726,-0.0113908695,-0.0036526173,0.010332089,-0.048579846,0.030318074,-0.99766487
2675.0700519,-0.016717192,-0.004717882,0.01246262,-0.05077711,0.03251534,-0.9949793
2675.07489369,-0.013521398,-0.0057831462,0.011397354,-0.048823986,0.03642159,-0.9974207
2675.0801765,-0.012456134,-0.0068484107,0.01246262,-0.048823986,0.03593331,-1.0062097
2675.0848938,-0.012456134,-0.004717882,0.011397354,-0.047603283,0.033736043,-1.0096277
2675.09005082,-0.012456134,-0.0057831462,0.010332089,-0.047115,0.0322712,-1.0042566
2675.09489284,-0.015651926,-0.0036526173,0.011397354,-0.047847424,0.034224324,-0.9959559
2675.10006631,-0.015651926,-0.0036526173,0.013527885,-0.049556408,0.031782918,-0.9954676
2675.10489287,-0.014586663,-0.004717882,0.011397354,-0.051753674,0.033736043,-1.0018152
2675.11005214,-0.013521398,-0.0057831462,0.011397354,-0.049556408,0.035200886,-1.0059656
2675.11489399,-0.012456134,-0.004717882,0.01246262,-0.047115,0.034224324,-1.0035242
2675.12004112,-0.015651926,-0.0057831462,0.01246262,-0.04613844,0.034712605,-1.0013269
2675.12489294,-0.015651926,-0.0068484107,0.01246262,-0.049068127,0.031782918,-1.0023035
2675.13004114,-0.0113908695,-0.004717882,0.011397354,-0.05004469,0.029829793,-1.0018152
2675.13489332,-0.014586663,-0.004717882,0.01246262,-0.05077711,0.03324776,-0.99644417
2675.14006567,-0.0113908695,-0.004717882,0.011397354,-0.049312267,0.035200886,-0.9954676
2675.14489353,-0.010325605,-0.007913675,0.011397354,-0.048335705,0.03324776,-1.0018152
2675.15005082,-0.017782457,-0.0068484107,0.011397354,-0.047847424,0.03324776,-1.010116
2675.15489359,-0.014586663,-0.0036526173,0.011397354,-0.048335705,0.03324776,-1.0086511
2675.16004077,-0.015651926,-0.004717882,0.011397354,-0.048335705,0.033980183,-1.0013269
2675.16489389,-0.012456134,-0.0057831462,0.011397354,-0.047359142,0.031294636,-0.99449104
2675.17004258,-0.012456134,-0.0068484107,0.01246262,-0.049556408,0.031782918,-0.99644417
2675.17489784,-0.013521398,-0.0057831462,0.01246262,-0.05028883,0.035445027,-1.0018152
2675.18019746,-0.012456134,-0.0057831462,0.011397354,-0.05028883,0.035445027,-1.006698
2675.18489419,-0.013521398,-0.0057831462,0.01246262,-0.047359142,0.035689168,-1.0020593
2675.19006135,-0.010325605,-0.0057831462,0.011397354,-0.04687086,0.031294636,-1.0008386
2675.19489359,-0.010325605,-0.0057831462,0.009266827,-0.048579846,0.030318074,-1.0023035
2675.20004166,-0.015651926,-0.0057831462,0.011397354,-0.05077711,0.03324776,-1.0005945
2675.20489325,-0.013521398,-0.004717882,0.011397354,-0.052241955,0.03300362,-0.99766487
2675.21004112,-0.0113908695,-0.0057831462,0.010332089,-0.049312267,0.033736043,-0.9988856
2675.21489413,-0.014586663,-0.0068484107,0.011397354,-0.047359142,0.03593331,-1.0047449
2675.22006443,-0.012456134,-0.0057831462,0.01246262,-0.04638258,0.035689168,-1.0081629
2675.2248937,-0.0113908695,-0.004717882,0.011397354,-0.047603283,0.03324776,-1.0057214
2675.23005324,-0.015651926,-0.004717882,0.011397354,-0.04980055,0.030318074,-0.99693245
2675.23489377,-0.016717192,-0.004717882,0.01246262,-0.049312267,0.031538777,-0.9922938
2675.24004275,-0.013521398,-0.0068484107,0.01246262,-0.048335705,0.03324776,-0.9983973
2675.24489314,-0.0113908695,-0.0068484107,0.011397354,-0.051509533,0.03690987,-1.0062097
2675.25003602,-0.014586663,-0.0068484107,0.01246262,-0.047359142,0.035200886,-1.0071863
2675.25489337,-0.010325605,-0.007913675,0.01246262,-0.048823986,0.03324776,-1.00328
2675.26006419,-0.012456134,-0.0057831462,0.010332089,-0.048335705,0.03324776,-1.0018152
2675.2648933,-0.015651926,-0.004717882,0.011397354,-0.048579846,0.03275948,-1.0008386
2675.27005178,-0.012456134,-0.004717882,0.011397354,-0.05004469,0.0322712,-1.0001062
2675.27489394,-0.013521398,-0.0057831462,0.011397354,-0.04980055,0.03300362,-0.9974207
2675.28017546,-0.013521398,-0.0057831462,0.009266827,-0.048823986,0.035200886,-1.0003504
2675.28489742,-0.015651926,-0.0057831462,0.01246262,-0.047847424,0.03617745,-1.0057214
2675.2900513,-0.012456134,-0.004717882,0.01246262,-0.047847424,0.034712605,-1.0086511
2675.29489333,-0.008195076,-0.0057831462,0.011397354,-0.048823986,0.031050496,-1.00328
2675.3000666,-0.012456134,-0.0057831462,0.011397354,-0.05004469,0.030806355,-0.9947352
2675.30489295,-0.013521398,-0.0068484107,0.011397354,-0.04980055,0.034712605,-0.9954676
2675.31005135,-0.0113908695,-0.004717882,0.010332089,-0.05028883,0.03666573,-1.00328
2675.31489286,-0.014586663,-0.0057831462,0.01246262,-0.048579846,0.035200886,-1.0081629
2675.32004019,-0.013521398,-0.0057831462,0.011397354,-0.047359142,0.033980183,-1.0062097
2675.32489376,-0.014586663,-0.0057831462,0.011397354,-0.04980055,0.03324776,-0.99986213
2675.33004014,-0.014586663,-0.0057831462,0.011397354,-0.048579846,0.031782918,-0.9983973
2675.33489395,-0.012456134,-0.0025873529,0.010332089,-0.05053297,0.031294636,-0.99864143
2675.34006614,-0.016717192,-0.0057831462,0.01246262,-0.05102125,0.03275948,-0.99937385
2675.34489436,-0.016717192,-0.0057831462,0.01246262,-0.05004469,0.034468465,-0.99937385
2675.35005436,-0.0113908695,-0.0057831462,0.011397354,-0.047359142,0.034468465,-1.008407
2675.35489461,-0.0113908695,-0.0057831462,0.011397354,-0.047359142,0.034468465,-1.008407
2675.36004289,-0.014586663,-0.004717882,0.011397354,-0.05004469,0.031294636,-0.999618
2675.36489429,-0.014586663,-0.004717882,0.011397354,-0.05004469,0.031294636,-0.999618
2675.37004134,-0.012456134,-0.0068484107,0.011397354,-0.05028883,0.033736043,-0.99644417
2675.37489422,-0.013521398,-0.0068484107,0.010332089,-0.05028883,0.033736043,-1.0071863
2675.3802479,-0.014586663,-0.004717882,0.010332089,-0.047847424,0.03666573,-1.0081629
2675.38489468,-0.012456134,-0.004717882,0.009266827,-0.047603283,0.033736043,-1.00328
2675.3900573,-0.013521398,-0.0057831462,0.011397354,-0.047847424,0.031782918,-0.999618
2675.39489394,-0.012456134,-0.004717882,0.011397354,-0.05028883,0.0322712,-0.99693245
2675.40004127,-0.0113908695,-0.0068484107,0.011397354,-0.049312267,0.03324776,-1.0003504
2675.40489426,-0.013521398,-0.0068484107,0.011397354,-0.05102125,0.035689168,-1.0013269
2675.41003977,-0.012456134,-0.0057831462,0.011397354,-0.048579846,0.035689168,-1.0018152
2675.41489413,-0.013521398,-0.0057831462,0.011397354,-0.04687086,0.034224324,-1.0037683
2675.42006626,-0.014586663,-0.0057831462,0.010332089,-0.04687086,0.033491902,-1.0062097
2675.42489692,-0.014586663,-0.004717882,0.011397354,-0.049312267,0.031538777,-1.00328
2675.43005237,-0.013521398,-0.004717882,0.011397354,-0.05004469,0.031050496,-0.99693245
2675.43490194,-0.015651926,-0.0025873529,0.01246262,-0.05077711,0.033491902,-0.9930262
2675.44004479,-0.014586663,-0.004717882,0.013527885,-0.048335705,0.035689168,-0.99937385
2675.44489358,-0.016717192,-0.004717882,0.01246262,-0.048823986,0.034224324,-1.0093836
2675.45004102,-0.013521398,-0.004717882,0.01246262,-0.048823986,0.034468465,-1.0091394
2675.45489232,-0.015651926,-0.004717882,0.01246262,-0.048091564,0.034712605,-1.0018152
2675.46006291,-0.0113908695,-0.004717882,0.011397354,-0.048335705,0.03300362,-0.99644417
2675.4648941,-0.012456134,-0.0057831462,0.010332089,-0.049556408,0.031050496,-0.99937385
2675.47005255,-0.0113908695,-0.0057831462,0.009266827,-0.051265392,0.033491902,-1.0013269
2675.47489436,-0.015651926,-0.004717882,0.01246262,-0.04980055,0.03715401,-1.00328
2675.48017791,-0.0071298117,-0.0057831462,0.011397354,-0.048579846,0.03642159,-1.0018152
2675.48489598,-0.013521398,-0.004717882,0.01246262,-0.045406017,0.033736043,-1.00328
2675.49005102,-0.013521398,-0.0057831462,0.01246262,-0.048335705,0.03202706,-1.004989
2675.49489682,-0.012456134,-0.004717882,0.011397354,-0.04980055,0.033736043,-1.0020593
2675.50006578,-0.013521398,-0.004717882,0.011397354,-0.04980055,0.03324776,-0.9962
2675.50489396,-0.014586663,-0.0057831462,0.01246262,-0.05028883,0.03251534,-0.99693245
2675.51005498,-0.016717192,-0.004717882,0.011397354,-0.048823986,0.03593331,-1.0045007
2675.5148932,-0.0071298117,-0.0068484107,0.011397354,-0.048335705,0.03666573,-1.0106043
2675.52004365,-0.012456134,-0.004717882,0.009266827,-0.048823986,0.035200886,-1.0052332
2675.52489512,-0.013521398,-0.004717882,0.010332089,-0.048823986,0.031294636,-0.997909
2675.53004166,-0.014586663,-0.0057831462,0.011397354,-0.049312267,0.029585652,-0.99449104
2675.53489618,-0.014586663,-0.004717882,0.011397354,-0.04980055,0.033980183,-0.9991297
2675.54006788,-0.012456134,-0.004717882,0.011397354,-0.05077711,0.03642159,-1.0037683
2675.54489503,-0.015651926,-0.0057831462,0.013527885,-0.048579846,0.035445027,-1.0059656
2675.55005761,-0.013521398,-0.0057831462,0.011397354,-0.047847424,0.034712605,-1.0037683
2675.55489417,-0.013521398,-0.0068484107,0.011397354,-0.0458943,0.034224324,-1.0035242
2675.56004029,-0.012456134,-0.0057831462,0.011397354,-0.04980055,0.031050496,-1.0042566
2675.56489414,-0.0113908695,-0.0057831462,0.011397354,-0.049556408,0.031782918,-0.99815315
2675.57004166,-0.013521398,-0.0068484107,0.011397354,-0.05077711,0.03300362,-0.99571174
2675.57489422,-0.012456134,-0.0057831462,0.010332089,-0.04980055,0.034224324,-0.9974207
2675.58020062,-0.014586663,-0.0068484107,0.010332089,-0.048823986,0.03642159,-1.0062097
2675.58489464,-0.015651926,-0.0036526173,0.011397354,-0.047115,0.034224324,-1.0093836
2675.59006025,-0.015651926,-0.004717882,0.013527885,-0.048335705,0.03275948,-1.0042566
2675.59489378,-0.0113908695,-0.0057831462,0.011397354,-0.048823986,0.031294636,-0.99644417
2675.60003986,-0.013521398,-0.0057831462,0.013527885,-0.048823986,0.030318074,-0.9949793
2675.60489694,-0.012456134,-0.0057831462,0.011397354,-0.05028883,0.035689168,-1.0003504
2675.61004102,-0.010325605,-0.0036526173,0.01246262,-0.049556408,0.035200886,-1.0071863
2675.61489443,-0.013521398,-0.004717882,0.011397354,-0.047359142,0.03324776,-1.0054773
2675.62006277,-0.014586663,-0.0057831462,0.01246262,-0.04687086,0.03324776,-1.0018152
2675.62489489,-0.0113908695,-0.004717882,0.010332089,-0.048823986,0.03275948,-1.0023035
2675.63005471,-0.0113908695,-0.0036526173,0.011397354,-0.049312267,0.031538777,-1.0013269
2675.63489383,-0.015651926,-0.004717882,0.011397354,-0.051509533,0.031294636,-0.99815315
2675.64004248,-0.012456134,-0.004717882,0.011397354,-0.05028883,0.033736043,-0.99571174
2675.64489361,-0.013521398,-0.007913675,0.010332089,-0.048823986,0.03617745,-1.0013269
2675.65004029,-0.012456134,-0.0057831462,0.011397354,-0.047359142,0.035200886,-1.0076746
2675.65489347,-0.014586663,-0.0057831462,0.01246262,-0.048579846,0.033491902,-1.0096277
2675.66006366,-0.0113908695,-0.004717882,0.011397354,-0.048823986,0.031294636,-1.0018152
2675.66489515,-0.012456134,-0.004717882,0.010332089,-0.049312267,0.0322712,-0.9935145
2675.67005602,-0.013521398,-0.0057831462,0.011397354,-0.049068127,0.03251534,-0.99644417
2675.67489455,-0.014586663,-0.0057831462,0.011397354,-0.051753674,0.03324776,-1.00328
2675.6801771,-0.01884772,-0.004717882,0.013527885,-0.048091564,0.035445027,-1.0071863
2675.68489488,-0.014586663,-0.0036526173,0.01246262,-0.04662672,0.03617745,-1.0027918
2675.69005086,-0.013521398,-0.0036526173,0.010332089,-0.047359142,0.03251534,-1.0003504
2675.69489498,-0.010325605,-0.004717882,0.008201562,-0.049068127,0.029341511,-1.0030359
2675.70006586,-0.0113908695,-0.0057831462,0.011397354,-0.05028883,0.0322712,-1.0008386
2675.70489416,-0.0113908695,-0.004717882,0.011397354,-0.05102125,0.034712605,-0.9988856
2675.71005359,-0.013521398,-0.0057831462,0.011397354,-0.049312267,0.03593331,-0.99937385
2675.71489453,-0.01884772,-0.0057831462,0.013527885,-0.04662672,0.034468465,-1.0047449
2675.72004414,-0.0113908695,-0.0057831462,0.010332089,-0.048335705,0.034956746,-1.0076746
2675.72489555,-0.0113908695,-0.0057831462,0.011397354,-0.047359142,0.033736043,-1.0052332
2675.73004724,-0.012456134,-0.004717882,0.011397354,-0.051265392,0.031294636,-0.9966883
2675.73489511,-0.014586663,-0.0025873529,0.01246262,-0.048823986,0.03202706,-0.99327034
2675.74006823,-0.016717192,-0.004717882,0.01246262,-0.04980055,0.034712605,-0.99864143
2675.74489493,-0.0113908695,-0.0057831462,0.010332089,-0.05077711,0.03324776,-1.0081629
2675.75005283,-0.013521398,-0.0057831462,0.011397354,-0.048335705,0.03617745,-1.0076746
2675.7548954,-0.013521398,-0.004717882,0.01246262,-0.047603283,0.03617745,-1.0023035
2675.76004168,-0.013521398,-0.0036526173,0.011397354,-0.047115,0.03202706,-1.0003504
2675.76489488,-0.012456134,-0.0057831462,0.010332089,-0.047847424,0.031294636,-0.99937385
2675.77004328,-0.0113908695,-0.0057831462,0.010332089,-0.04980055,0.03324776,-0.9991297
2675.77489385,-0.010325605,-0.004717882,0.009266827,-0.05028883,0.035689168,-0.99693245
2675.78019865,-0.013521398,-0.0057831462,0.011397354,-0.048335705,0.03593331,-1.0008386
2675.78489515,-0.012456134,-0.0057831462,0.011397354,-0.048091564,0.034712605,-1.0057214
2675.79005982,-0.014586663,-0.0057831462,0.011397354,-0.04687086,0.03275948,-1.008407
2675.79489444,-0.012456134,-0.004717882,0.010332089,-0.04980055,0.03251534,-1.00328
2675.80004328,-0.010325605,-0.004717882,0.011397354,-0.04980055,0.030806355,-0.99449104
2675.8048936,-0.013521398,-0.0036526173,0.01246262,-0.05102125,0.03202706,-0.99571174
2675.81004046,-0.010325605,-0.0057831462,0.011397354,-0.05004469,0.035689168,-1.0023035
2675.8148944,-0.015651926,-0.004717882,0.011397354,-0.049068127,0.03690987,-1.0091394
2675.82007005,-0.013521398,-0.0068484107,0.010332089,-0.04638258,0.03617745,-1.0054773
2675.82489491,-0.013521398,-0.004717882,0.011397354,-0.047847424,0.03275948,-1.0001062
2675.83005365,-0.015651926,-0.004717882,0.01246262,-0.049068127,0.031294636,-0.9983973
2675.83489551,-0.013521398,-0.0057831462,0.013527885,-0.049312267,0.033736043,-0.99864143
2675.84004274,-0.014586663,-0.0057831462,0.011397354,-0.051265392,0.034712605,-0.99986213
2675.84489334,-0.010325605,-0.0057831462,0.011397354,-0.05004469,0.033736043,-1.0010828
2675.85004046,-0.013521398,-0.0068484107,0.011397354,-0.047847424,0.03300362,-1.0037683
2675.85489427,-0.016717192,-0.0068484107,0.01246262,-0.047115,0.035689168,-1.0064539
2675.86006332,-0.014586663,-0.004717882,0.010332089,-0.04662672,0.033736043,-1.0064539
2675.86489423,-0.015651926,-0.004717882,0.014593147,-0.049312267,0.029341511,-0.9988856
2675.87005387,-0.012456134,-0.0057831462,0.010332089,-0.049312267,0.031782918,-0.9930262
2675.87489422,-0.010325605,-0.0057831462,0.011397354,-0.05053297,0.035200886,-0.99693245
2675.88017513,-0.017782457,-0.0057831462,0.01246262,-0.05004469,0.035200886,-1.0064539
2675.88489358,-0.013521398,-0.004717882,0.010332089,-0.048579846,0.035689168,-1.0086511
2675.89005166,-0.016717192,-0.004717882,0.01246262,-0.047847424,0.03275948,-1.00328
2675.89489397,-0.014586663,-0.0057831462,0.01246262,-0.048335705,0.03251534,-0.9988856
2675.9000658,-0.013521398,-0.0068484107,0.011397354,-0.048091564,0.0322712,-0.99693245
2675.90489791,-0.0113908695,-0.004717882,0.011397354,-0.05028883,0.03202706,-1.0008386
2675.91005481,-0.015651926,-0.004717882,0.01246262,-0.049312267,0.03617745,-1.0010828
2675.91489691,-0.015651926,-0.004717882,0.011397354,-0.049068127,0.03715401,-1.001571
2675.92004361,-0.014586663,-0.0057831462,0.011397354,-0.0458943,0.035445027,-1.0037683
2675.92489447,-0.016717192,-0.004717882,0.013527885,-0.047847424,0.03324776,-1.0052332
2675.93004297,-0.015651926,-0.0036526173,0.009266827,-0.048579846,0.03251534,-1.00328
2675.93489455,-0.012456134,-0.0057831462,0.011397354,-0.048823986,0.03202706,-0.99571174
2675.94006582,-0.009260341,-0.0057831462,0.010332089,-0.05053297,0.034224324,-0.99400276
2675.944895,-0.014586663,-0.0057831462,0.01246262,-0.049312267,0.033736043,-1.0005945
2675.95005483,-0.010325605,-0.0068484107,0.011397354,-0.048823986,0.035689168,-1.0103601
2675.954895,-0.014586663,-0.004717882,0.01246262,-0.047847424,0.034956746,-1.008407
2675.96004192,-0.013521398,-0.0036526173,0.011397354,-0.047847424,0.03275948,-1.0023035
2675.96489626,-0.012456134,-0.004717882,0.01246262,-0.048335705,0.0322712,-0.99644417
2675.97004292,-0.0113908695,-0.0057831462,0.011397354,-0.048823986,0.033980183,-0.99693245
2675.97489494,-0.016717192,-0.004717882,0.011397354,-0.049312267,0.034468465,-1.0008386
2675.98021501,-0.012456134,-0.0057831462,0.011397354,-0.051509533,0.034468465,-1.0027918
2675.98489576,-0.009260341,-0.0068484107,0.011397354,-0.047359142,0.033980183,-1.0027918
2675.99075126,-0.012456134,-0.004717882,0.011397354,-0.04662672,0.034956746,-1.0037683
2675.99489486,-0.014586663,-0.0057831462,0.011397354,-0.048823986,0.03275948,-1.0057214
2676.00004602,-0.0113908695,-0.004717882,0.011397354,-0.049312267,0.029829793,-1.0023035
2676.00489464,-0.008195076,-0.007913675,0.011397354,-0.05102125,0.03251534,-0.9954676
2676.01004312,-0.0071298117,-0.0057831462,0.010332089,-0.051265392,0.035689168,-0.9962
2676.01489547,-0.012456134,-0.004717882,0.01246262,-0.048579846,0.03715401,-1.0047449
2676.02006524,-0.012456134,-0.0068484107,0.01246262,-0.047359142,0.034712605,-1.0096277
2676.02489422,-0.016717192,-0.004717882,0.01246262,-0.047603283,0.03324776,-1.0045007
2676.03005068,-0.017782457,-0.004717882,0.013527885,-0.049068127,0.03300362,-0.99766487
2676.03489382,-0.014586663,-0.004717882,0.009266827,-0.049312267,0.0322712,-0.9937586
2676.04004426,-0.0113908695,-0.0036526173,0.010332089,-0.05028883,0.03202706,-1.0010828
2676.04489426,-0.010325605,-0.0057831462,0.010332089,-0.05028883,0.033736043,-1.0042566
2676.05004134,-0.015651926,-0.007913675,0.01246262,-0.048823986,0.03715401,-1.0057214
2676.05489518,-0.0113908695,-0.0068484107,0.011397354,-0.047359142,0.03690987,-1.0020593
2676.06006674,-0.009260341,-0.004717882,0.010332089,-0.04662672,0.03324776,-1.0030359
2676.06489473,-0.0113908695,-0.0057831462,0.011397354,-0.05028883,0.030806355,-1.0040125
2676.07005497,-0.012456134,-0.0057831462,0.010332089,-0.047847424,0.033736043,-0.99693245
2676.07489666,-0.013521398,-0.004717882,0.011397354,-0.051265392,0.034224324,-0.99571174
2676.08017666,-0.0113908695,-0.0057831462,0.011397354,-0.049312267,0.033736043,-1.0001062
2676.08489667,-0.014586663,-0.0057831462,0.011397354,-0.048091564,0.034956746,-1.0081629
2676.09005176,-0.013521398,-0.0068484107,0.011397354,-0.04638258,0.034712605,-1.0091394
2676.09489461,-0.013521398,-0.0057831462,0.01246262,-0.047847424,0.033736043,-1.0018152
2676.10006561,-0.014586663,-0.0057831462,0.01246262,-0.047603283,0.031294636,-0.99571174
2676.10489561,-0.012456134,-0.004717882,0.011397354,-0.05028883,0.03202706,-0.99644417
2676.11005182,-0.009260341,-0.0057831462,0.011397354,-0.051265392,0.035200886,-1.0037683
2676.11489477,-0.0113908695,-0.0068484107,0.011397354,-0.05053297,0.03715401,-1.006698
2676.12004055,-0.017782457,-0.0068484107,0.01246262,-0.047603283,0.034224324,-1.0042566
2676.12489483,-0.015651926,-0.004717882,0.011397354,-0.047359142,0.034712605,-1.0018152
2676.1300423,-0.014586663,-0.0036526173,0.011397354,-0.047847424,0.031294636,-1.0042566
2676.13489499,-0.008195076,-0.004717882,0.013527885,-0.04980055,0.031050496,-0.99937385
2676.14006726,-0.014586663,-0.004717882,0.010332089,-0.05028883,0.03251534,-0.99571174
2676.1448946,-0.012456134,-0.004717882,0.010332089,-0.04980055,0.034224324,-0.9954676
2676.15005626,-0.014586663,-0.0068484107,0.009266827,-0.048091564,0.034224324,-1.00328
2676.15489424,-0.017782457,-0.0057831462,0.01246262,-0.047115,0.035445027,-1.0098718
2676.16004379,-0.016717192,-0.004717882,0.013527885,-0.048335705,0.03300362,-1.0074304
2676.16489497,-0.013521398,-0.004717882,0.011397354,-0.047847424,0.03275948,-1.0003504
2676.17004094,-0.0113908695,-0.0057831462,0.011397354,-0.048823986,0.03275948,-0.9925379
2676.17489467,-0.015651926,-0.0057831462,0.013527885,-0.05028883,0.0322712,-0.997909
2676.18019892,-0.016717192,-0.0057831462,0.011397354,-0.051509533,0.03275948,-1.0042566
2676.18489594,-0.013521398,-0.0057831462,0.011397354,-0.048823986,0.03617745,-1.0057214
2676.19006033,-0.014586663,-0.004717882,0.011397354,-0.047359142,0.03642159,-1.0018152
2676.19489469,-0.0113908695,-0.0036526173,0.010332089,-0.047603283,0.030806355,-1.0018152
2676.20004265,-0.0113908695,-0.0057831462,0.011397354,-0.048335705,0.030562215,-1.0023035
2676.20489479,-0.014586663,-0.004717882,0.010332089,-0.05028883,0.03593331,-0.99864143
2676.21004162,-0.0113908695,-0.004717882,0.010332089,-0.05077711,0.035445027,-0.99766487
2676.21489469,-0.012456134,-0.0057831462,0.01246262,-0.048823986,0.034956746,-0.999618
2676.22006419,-0.013521398,-0.0057831462,0.011397354,-0.04662672,0.034224324,-1.0057214
2676.22489594,-0.010325605,-0.0057831462,0.01246262,-0.04687086,0.034956746,-1.0081629
2676.23005605,-0.012456134,-0.004717882,0.011397354,-0.047847424,0.033736043,-1.0023035
2676.23489538,-0.013521398,-0.0057831462,0.011397354,-0.04980055,0.029341511,-0.9947352
2676.24004224,-0.0113908695,-0.0057831462,0.010332089,-0.05053297,0.030318074,-0.9947352
2676.2448961,-0.015651926,-0.0036526173,0.013527885,-0.05028883,0.035689168,-1.0013269
2676.25004126,-0.008195076,-0.004717882,0.010332089,-0.049556408,0.03666573,-1.0081629
2676.25489666,-0.012456134,-0.004717882,0.01246262,-0.047359142,0.034956746,-1.006698
2676.2600666,-0.017782457,-0.004717882,0.01246262,-0.048091564,0.035200886,-1.0013269
2676.26489875,-0.013521398,-0.0057831462,0.011397354,-0.047359142,0.034224324,-0.99986213
2676.27005267,-0.013521398,-0.0036526173,0.010332089,-0.048335705,0.03275948,-0.99937385
2676.27489527,-0.013521398,-0.0036526173,0.010332089,-0.05028883,0.0322712,-0.9988856
2676.28017537,-0.009260341,-0.0057831462,0.011397354,-0.048091564,0.035200886,-1.0023035
2676.28489546,-0.009260341,-0.0057831462,0.011397354,-0.048091564,0.035200886,-1.0023035
2676.2900513,-0.014586663,-0.0057831462,0.011397354,-0.048823986,0.033980183,-1.0076746
2676.29489629,-0.014586663,-0.0057831462,0.011397354,-0.048823986,0.033980183,-1.0076746
2676.3000692,-0.010325605,-0.0057831462,0.01246262,-0.049556408,0.031782918,-0.9937586
2676.30489634,-0.009260341,-0.0057831462,0.010332089,-0.049556408,0.034468465,-0.9974207
2676.31005355,-0.013521398,-0.0057831462,0.011397354,-0.049312267,0.035200886,-1.0054773
2676.31489746,-0.010325605,-0.004717882,0.010332089,-0.049312267,0.034712605,-1.0086511
2676.32004003,-0.013521398,-0.004717882,0.011397354,-0.047115,0.034712605,-1.0037683
2676.32489528,-0.014586663,-0.0057831462,0.011397354,-0.04687086,0.03300362,-0.9988856
2676.33004283,-0.013521398,-0.0057831462,0.011397354,-0.048823986,0.031294636,-0.99864143
2676.33489642,-0.0071298117,-0.0057831462,0.009266827,-0.04980055,0.03202706,-1.0001062
2676.34006765,-0.013521398,-0.004717882,0.011397354,-0.051753674,0.034956746,-0.99815315
2676.34489488,-0.015651926,-0.007913675,0.011397354,-0.05028883,0.03617745,-0.999618
2676.35005182,-0.012456134,-0.0068484107,0.01246262,-0.04687086,0.034712605,-1.0047449
2676.35489502,-0.014586663,-0.004717882,0.011397354,-0.04687086,0.034468465,-1.0093836
2676.36004326,-0.013521398,-0.004717882,0.011397354,-0.048335705,0.03300362,-1.0057214
2676.3648971,-0.009260341,-0.0068484107,0.009266827,-0.048335705,0.031538777,-0.99644417
2676.3700435,-0.012456134,-0.0057831462,0.011397354,-0.049068127,0.031782918,-0.9925379
2676.37489529,-0.014586663,-0.0057831462,0.011397354,-0.04980055,0.035200886,-0.99864143
2676.3802523,-0.012456134,-0.007913675,0.009266827,-0.049312267,0.03593331,-1.0071863
2676.38489504,-0.015651926,-0.004717882,0.011397354,-0.048823986,0.03666573,-1.006698
2676.39006348,-0.014586663,-0.0036526173,0.011397354,-0.047603283,0.031782918,-1.0018152
2676.39489469,-0.013521398,-0.004717882,0.010332089,-0.048823986,0.031050496,-0.99937385
2676.40004436,-0.013521398,-0.004717882,0.010332089,-0.048823986,0.03324776,-0.99937385
2676.40489531,-0.013521398,-0.004717882,0.01246262,-0.049312267,0.033736043,-1.0018152
2676.41004395,-0.013521398,-0.0057831462,0.010332089,-0.04980055,0.03324776,-1.0013269
2676.41489682,-0.014586663,-0.004717882,0.011397354,-0.049312267,0.034712605,-1.0013269
2676.42006631,-0.0113908695,-0.0057831462,0.011397354,-0.04638258,0.03642159,-1.0037683
2676.4248947,-0.012456134,-0.004717882,0.011397354,-0.047359142,0.033980183,-1.0064539
2676.43005373,-0.013521398,-0.0057831462,0.011397354,-0.05028883,0.030318074,-1.0013269
2676.43489548,-0.015651926,-0.004717882,0.01246262,-0.049068127,0.031782918,-0.99327034
2676.44004405,-0.009260341,-0.0057831462,0.01246262,-0.049312267,0.035689168,-0.9937586
2676.44489602,-0.014586663,-0.0068484107,0.01246262,-0.049068127,0.034712605,-1.0042566
2676.45004272,-0.015651926,-0.0036526173,0.01246262,-0.049312267,0.033736043,-1.0106043
2676.45489602,-0.012456134,-0.0057831462,0.010332089,-0.0458943,0.034956746,-1.0069422
2676.46006963,-0.012456134,-0.0057831462,0.010332089,-0.04687086,0.034468465,-0.99937385
2676.46489549,-0.010325605,-0.004717882,0.011397354,-0.048823986,0.031782918,-0.9966883
2676.47005698,-0.0113908695,-0.0036526173,0.011397354,-0.05053297,0.030318074,-0.9988856
2676.47489424,-0.013521398,-0.0068484107,0.013527885,-0.049556408,0.034224324,-0.99986213
2676.48017805,-0.0113908695,-0.007913675,0.011397354,-0.04980055,0.035200886,-1.0005945
2676.48489587,-0.014586663,-0.0057831462,0.010332089,-0.047359142,0.034712605,-1.00328
2676.49005118,-0.015651926,-0.0036526173,0.01246262,-0.04687086,0.034224324,-1.0069422
2676.49489892,-0.014586663,-0.0036526173,0.010332089,-0.04980055,0.03275948,-1.0062097
2676.50006714,-0.012456134,-0.004717882,0.008201562,-0.049556408,0.031538777,-0.997909
2676.50489491,-0.012456134,-0.0057831462,0.011397354,-0.04980055,0.033491902,-0.99278206
2676.51005348,-0.012456134,-0.004717882,0.011397354,-0.049312267,0.033736043,-0.9974207
2676.51489614,-0.015651926,-0.0068484107,0.013527885,-0.049068127,0.035689168,-1.0076746
2676.52004396,-0.012456134,-0.0057831462,0.010332089,-0.047847424,0.03593331,-1.008407
2676.52489551,-0.013521398,-0.0057831462,0.010332089,-0.047603283,0.034468465,-1.0027918
2676.53004316,-0.010325605,-0.0068484107,0.011397354,-0.049312267,0.031538777,-0.9966883
2676.53489694,-0.012456134,-0.0068484107,0.01246262,-0.048823986,0.031782918,-0.99766487
2676.5400661,-0.015651926,-0.0057831462,0.011397354,-0.05102125,0.033491902,-1.0023035
2676.54489949,-0.0113908695,-0.0057831462,0.010332089,-0.049556408,0.03666573,-1.0018152
2676.55005682,-0.015651926,-0.004717882,0.01246262,-0.049312267,0.035200886,-1.0020593
2676.55489667,-0.015651926,-0.0057831462,0.011397354,-0.04613844,0.033736043,-1.0045007
2676.56004277,-0.013521398,-0.0057831462,0.011397354,-0.047847424,0.03275948,-1.0071863
2676.56489548,-0.014586663,-0.0057831462,0.011397354,-0.048823986,0.0322712,-1.00328
2676.57004246,-0.012456134,-0.0057831462,0.011397354,-0.05053297,0.031782918,-0.9942469
2676.57489618,-0.013521398,-0.004717882,0.010332089,-0.05004469,0.03275948,-0.9942469
2676.5802023,-0.0113908695,-0.0068484107,0.011397354,-0.049068127,0.03617745,-1.0018152
2676.58489599,-0.013521398,-0.004717882,0.010332089,-0.047359142,0.03715401,-1.0091394
2676.59005923,-0.010325605,-0.004717882,0.011397354,-0.047359142,0.034712605,-1.0076746
2676.59489459,-0.015651926,-0.004717882,0.01246262,-0.048579846,0.03202706,-0.99937385
2676.60004309,-0.014586663,-0.004717882,0.01246262,-0.05004469,0.031294636,-0.9959559
2676.60489603,-0.012456134,-0.004717882,0.010332089,-0.049312267,0.0322712,-0.99937385
2676.61004335,-0.010325605,-0.0057831462,0.010332089,-0.04980055,0.034468465,-1.0027918
2676.6148961,-0.010325605,-0.0068484107,0.01246262,-0.04980055,0.035200886,-1.00328
2676.62006862,-0.014586663,-0.0068484107,0.01246262,-0.0458943,0.034224324,-1.0030359
2676.6248965,-0.012456134,-0.004717882,0.013527885,-0.04638258,0.034712605,-1.0037683
2676.63005658,-0.014586663,-0.0036526173,0.01246262,-0.047847424,0.031782918,-1.0042566
2676.63489614,-0.0113908695,-0.004717882,0.011397354,-0.049312267,0.031294636,-0.9983973
2676.64004158,-0.010325605,-0.0057831462,0.011397354,-0.05077711,0.03300362,-0.9942469
2676.64489562,-0.015651926,-0.0036526173,0.011397354,-0.049068127,0.035689168,-0.9983973
2676.65004561,-0.017782457,-0.0036526173,0.009266827,-0.04980055,0.03593331,-1.0076746
2676.65489561,-0.016717192,-0.004717882,0.011397354,-0.047359142,0.034224324,-1.010116
2676.66006602,-0.0071298117,-0.0057831462,0.011397354,-0.047359142,0.033980183,-1.004989
2676.66489569,-0.012456134,-0.0057831462,0.011397354,-0.049068127,0.031782918,-0.9966883
2676.67005692,-0.013521398,-0.004717882,0.01246262,-0.04980055,0.029829793,-0.9947352
2676.67489586,-0.013521398,-0.0057831462,0.009266827,-0.05028883,0.033980183,-1.0003504
2676.68017726,-0.014586663,-0.0057831462,0.01246262,-0.05004469,0.03593331,-1.00328
2676.68489516,-0.010325605,-0.0068484107,0.009266827,-0.047359142,0.03617745,-1.0027918
2676.69005323,-0.012456134,-0.004717882,0.011397354,-0.04638258,0.03593331,-1.0023035
2676.69489504,-0.013521398,-0.0036526173,0.011397354,-0.048091564,0.031294636,-1.0054773
2676.70006586,-0.014586663,-0.004717882,0.01246262,-0.048823986,0.03275948,-1.0030359
2676.70489529,-0.012456134,-0.0057831462,0.01246262,-0.05028883,0.03275948,-0.9974207
2676.7100573,-0.013521398,-0.004717882,0.011397354,-0.04980055,0.03324776,-0.9949793
2676.71489525,-0.013521398,-0.0068484107,0.009266827,-0.049068127,0.033980183,-1.0010828
2676.7200424,-0.0113908695,-0.0068484107,0.011397354,-0.047603283,0.034712605,-1.008407
2676.72489586,-0.012456134,-0.0057831462,0.011397354,-0.048579846,0.035445027,-1.0071863
2676.73004785,-0.0113908695,-0.0057831462,0.011397354,-0.047847424,0.03202706,-1.0013269
2676.73489742,-0.014586663,-0.004717882,0.013527885,-0.049556408,0.030318074,-0.99400276
2676.74007162,-0.013521398,-0.0068484107,0.01246262,-0.048823986,0.033491902,-0.9974207
2676.74489698,-0.0113908695,-0.0057831462,0.01246262,-0.05077711,0.035689168,-1.0023035
2676.7500565,-0.013521398,-0.004717882,0.011397354,-0.048579846,0.03690987,-1.0062097
2676.75489517,-0.013521398,-0.004717882,0.011397354,-0.047847424,0.033980183,-1.0037683
2676.76004521,-0.013521398,-0.0036526173,0.011397354,-0.047115,0.03202706,-1.00328
2676.7648956,-0.013521398,-0.004717882,0.011397354,-0.048091564,0.03251534,-1.0035242
2676.7700415,-0.0113908695,-0.0057831462,0.011397354,-0.048823986,0.03324776,-0.9988856
2676.77489631,-0.0113908695,-0.0036526173,0.010332089,-0.051997814,0.031050496,-0.9962
2676.7802008,-0.017782457,-0.004717882,0.011397354,-0.05004469,0.033980183,-0.9954676
2676.78489634,-0.014586663,-0.0068484107,0.011397354,-0.048579846,0.037398152,-1.0047449
2676.79006134,-0.012456134,-0.0057831462,0.010332089,-0.048335705,0.034468465,-1.010116
2676.79489563,-0.016717192,-0.004717882,0.011397354,-0.047847424,0.033736043,-1.006698
2676.80004586,-0.013521398,-0.004717882,0.010332089,-0.04980055,0.030806355,-0.9983973
2676.80489612,-0.014586663,-0.0057831462,0.011397354,-0.048091564,0.03300362,-0.9935145
2676.81004331,-0.014586663,-0.0057831462,0.01246262,-0.04980055,0.035445027,-0.999618
2676.8148956,-0.012456134,-0.004717882,0.011397354,-0.049556408,0.035200886,-1.0054773
2676.82006753,-0.010325605,-0.0068484107,0.011397354,-0.048335705,0.034468465,-1.0057214
2676.82489522,-0.014586663,-0.004717882,0.011397354,-0.04638258,0.035689168,-1.0023035
2676.83005374,-0.014586663,-0.0057831462,0.010332089,-0.047359142,0.03275948,-1.0013269
2676.8348965,-0.014586663,-0.0057831462,0.01246262,-0.049068127,0.029341511,-1.0013269
2676.8400448,-0.013521398,-0.004717882,0.013527885,-0.05102125,0.031782918,-0.99815315
2676.84489634,-0.015651926,-0.004717882,0.011397354,-0.05077711,0.035200886,-0.9959559
2676.85004221,-0.010325605,-0.0057831462,0.009266827,-0.049312267,0.03715401,-1.0003504
2676.85489634,-0.013521398,-0.004717882,0.011397354,-0.047115,0.035689168,-1.0088953
2676.86006792,-0.014586663,-0.004717882,0.01246262,-0.04662672,0.034468465,-1.0106043
2676.86489557,-0.013521398,-0.0036526173,0.011397354,-0.048579846,0.033736043,-1.0023035
2676.87005746,-0.012456134,-0.0057831462,0.010332089,-0.048091564,0.030806355,-0.99449104
2676.87489566,-0.010325605,-0.0057831462,0.010332089,-0.048335705,0.03251534,-0.99400276
2676.88017856,-0.015651926,-0.0057831462,0.01246262,-0.05004469,0.034224324,-1.0010828
2676.88489558,-0.013521398,-0.0068484107,0.01246262,-0.048823986,0.03593331,-1.0079187
2676.89004991,-0.012456134,-0.0068484107,0.01246262,-0.048335705,0.035689168,-1.0045007
2676.89489618,-0.015651926,-0.0068484107,0.01246262,-0.047847424,0.03202706,-1.0018152
2676.90006925,-0.0113908695,-0.004717882,0.011397354,-0.048335705,0.0322712,-1.0030359
2676.9048963,-0.012456134,-0.004717882,0.010332089,-0.048579846,0.03202706,-1.0013269
2676.91005391,-0.012456134,-0.004717882,0.011397354,-0.05077711,0.03324776,-0.9991297
2676.91489516,-0.015651926,-0.0057831462,0.011397354,-0.048091564,0.035445027,-0.9971766
2676.92004368,-0.013521398,-0.004717882,0.011397354,-0.047847424,0.034712605,-1.00328
2676.92489924,-0.008195076,-0.0036526173,0.010332089,-0.04687086,0.035689168,-1.0081629
2676.9300425,-0.010325605,-0.004717882,0.01246262,-0.048335705,0.033736043,-1.006698
2676.9348956,-0.013521398,-0.0057831462,0.011397354,-0.049556408,0.030806355,-0.997909
2676.94006814,-0.013521398,-0.0057831462,0.011397354,-0.04980055,0.0322712,-0.99204963
2676.94489715,-0.010325605,-0.0057831462,0.010332089,-0.04980055,0.035200886,-0.9983973
2676.95005682,-0.012456134,-0.0057831462,0.010332089,-0.049312267,0.034712605,-1.006698
2676.95489457,-0.010325605,-0.0057831462,0.011397354,-0.048823986,0.033980183,-1.0091394
2676.96004356,-0.014586663,-0.0057831462,0.011397354,-0.047359142,0.035689168,-1.0027918
2676.96489618,-0.012456134,-0.004717882,0.010332089,-0.047847424,0.033736043,-0.9991297
2676.97004477,-0.013521398,-0.0057831462,0.01246262,-0.05004469,0.031050496,-0.99986213
2676.97489524,-0.0113908695,-0.0036526173,0.011397354,-0.04980055,0.031538777,-1.0001062
2676.98021858,-0.012456134,-0.0057831462,0.011397354,-0.05028883,0.034712605,-0.9974207
2676.98489596,-0.015651926,-0.0057831462,0.01246262,-0.047847424,0.03715401,-0.99986213
2676.99074885,-0.012456134,-0.0057831462,0.011397354,-0.04687086,0.034712605,-1.0057214
2676.99489496,-0.015651926,-0.004717882,0.011397354,-0.047603283,0.03300362,-1.0081629
2677.00004763,-0.014586663,-0.004717882,0.013527885,-0.049556408,0.03202706,-1.0042566
2677.00489726,-0.014586663,-0.0036526173,0.01246262,-0.049312267,0.03251534,-0.99400276
2677.01004182,-0.016717192,-0.004717882,0.01246262,-0.048823986,0.03300362,-0.99449104
2677.01489567,-0.013521398,-0.0057831462,0.011397354,-0.04980055,0.034468465,-1.001571
2677.02006835,-0.014586663,-0.004717882,0.010332089,-0.048823986,0.034468465,-1.0086511
2677.02489627,-0.010325605,-0.007913675,0.009266827,-0.047847424,0.035689168,-1.0059656
2677.0300573,-0.012456134,-0.004717882,0.010332089,-0.04687086,0.034468465,-0.99937385
2677.03489549,-0.014586663,-0.0036526173,0.011397354,-0.048091564,0.030318074,-0.99864143
2677.04004415,-0.0113908695,-0.0036526173,0.010332089,-0.049312267,0.03202706,-0.99815315
2677.04489556,-0.015651926,-0.004717882,0.011397354,-0.051265392,0.03324776,-1.0005945
2677.05004473,-0.01884772,-0.004717882,0.013527885,-0.05004469,0.035689168,-0.99986213
2677.05489634,-0.015651926,-0.0057831462,0.011397354,-0.048335705,0.035445027,-1.0030359
2677.06006801,-0.016717192,-0.004717882,0.011397354,-0.04613844,0.033491902,-1.0076746
2677.0648941,-0.015651926,-0.0057831462,0.011397354,-0.049312267,0.03275948,-1.0076746
2677.07005614,-0.014586663,-0.004717882,0.01246262,-0.049312267,0.033736043,-1.0008386
2677.07489586,-0.015651926,-0.0057831462,0.011397354,-0.04980055,0.030806355,-0.99204963
2677.0801774,-0.009260341,-0.0057831462,0.01246262,-0.05004469,0.0322712,-0.9954676
2677.08489538,-0.015651926,-0.0057831462,0.011397354,-0.05053297,0.03593331,-1.0037683
2677.09005257,-0.013521398,-0.004717882,0.011397354,-0.048335705,0.03715401,-1.0071863
2677.09489618,-0.010325605,-0.0068484107,0.01246262,-0.048335705,0.035689168,-1.0042566
2677.10006881,-0.013521398,-0.004717882,0.011397354,-0.048823986,0.031538777,-0.9991297
2677.10489618,-0.013521398,-0.0036526173,0.011397354,-0.049312267,0.029341511,-0.99815315
2677.11005868,-0.012456134,-0.0036526173,0.011397354,-0.04980055,0.033736043,-1.0008386
2677.11489619,-0.009260341,-0.004717882,0.010332089,-0.05004469,0.037642293,-1.001571
2677.12004364,-0.009260341,-0.0068484107,0.010332089,-0.048091564,0.033736043,-1.0013269
2677.12489666,-0.015651926,-0.004717882,0.010332089,-0.047115,0.033736043,-1.0027918
2677.13004471,-0.013521398,-0.0057831462,0.011397354,-0.04638258,0.035445027,-1.0042566
2677.13489765,-0.012456134,-0.0036526173,0.010332089,-0.05004469,0.0322712,-1.00328
2677.14006849,-0.013521398,-0.004717882,0.011397354,-0.048579846,0.030806355,-0.9974207
2677.14489586,-0.013521398,-0.0057831462,0.011397354,-0.051265392,0.031782918,-0.99400276
2677.15005666,-0.016717192,-0.0057831462,0.01246262,-0.049312267,0.034712605,-0.99937385
2677.15489586,-0.013521398,-0.0057831462,0.01246262,-0.049556408,0.03715401,-1.0093836
2677.16004614,-0.0113908695,-0.004717882,0.011397354,-0.04662672,0.034468465,-1.0098718
2677.16489724,-0.013521398,-0.004717882,0.011397354,-0.04662672,0.03275948,-1.0013269
2677.17004335,-0.014586663,-0.0036526173,0.011397354,-0.047847424,0.031294636,-0.9966883
2677.17489634,-0.015651926,-0.004717882,0.01246262,-0.048823986,0.03251534,-0.9959559
2677.18019817,-0.015651926,-0.0057831462,0.011397354,-0.05028883,0.035200886,-1.0037683
2677.18489678,-0.015651926,-0.0057831462,0.011397354,-0.05028883,0.035200886,-1.0037683
2677.1900651,-0.017782457,-0.0057831462,0.011397354,-0.048335705,0.034956746,-1.0030359
2677.19489644,-0.0113908695,-0.004717882,0.011397354,-0.04687086,0.03666573,-1.0037683
2677.20004458,-0.012456134,-0.004717882,0.01246262,-0.047603283,0.034224324,-1.0062097
2677.20489714,-0.013521398,-0.0057831462,0.011397354,-0.049556408,0.030562215,-1.0037683
2677.2100465,-0.012456134,-0.0057831462,0.010332089,-0.04980055,0.033736043,-0.9942469
2677.21489602,-0.012456134,-0.0057831462,0.010332089,-0.04980055,0.033736043,-0.9942469
2677.22006863,-0.0113908695,-0.0036526173,0.011397354,-0.04687086,0.035200886,-1.0098718
2677.22489969,-0.0113908695,-0.0036526173,0.011397354,-0.04687086,0.035200886,-1.0098718
2677.23005367,-0.0113908695,-0.0057831462,0.011397354,-0.047359142,0.0322712,-0.99815315
2677.23489705,-0.0113908695,-0.004717882,0.009266827,-0.047359142,0.0322712,-0.99815315
2677.24004382,-0.012456134,-0.004717882,0.011397354,-0.048823986,0.03324776,-0.99815315
2677.24489509,-0.012456134,-0.0068484107,0.011397354,-0.051753674,0.03324776,-1.0042566
2677.25004349,-0.013521398,-0.0057831462,0.011397354,-0.049312267,0.035445027,-1.0052332
2677.25489563,-0.013521398,-0.0057831462,0.011397354,-0.047359142,0.03666573,-1.001571
2677.26006769,-0.012456134,-0.0036526173,0.01246262,-0.04687086,0.03300362,-1.0035242
2677.2648973,-0.012456134,-0.004717882,0.011397354,-0.049068127,0.030562215,-1.004989
2677.27006007,-0.012456134,-0.004717882,0.010332089,-0.047359142,0.03202706,-0.99986213
2677.27489618,-0.0113908695,-0.0057831462,0.01246262,-0.04980055,0.033736043,-0.99449104
2677.28017612,-0.012456134,-0.0057831462,0.011397354,-0.05028883,0.035200886,-0.99693245
2677.28489723,-0.014586663,-0.0057831462,0.011397354,-0.049068127,0.035689168,-1.0062097
2677.29005268,-0.013521398,-0.0036526173,0.011397354,-0.04613844,0.034956746,-1.0106043
2677.29489737,-0.012456134,-0.004717882,0.010332089,-0.048091564,0.035200886,-1.0047449
2677.3000685,-0.012456134,-0.004717882,0.011397354,-0.048335705,0.03275948,-0.99693245
2677.30489479,-0.010325605,-0.0057831462,0.010332089,-0.05028883,0.031782918,-0.9947352
2677.31005554,-0.012456134,-0.0057831462,0.010332089,-0.04980055,0.034224324,-1.0013269
2677.31489698,-0.013521398,-0.0068484107,0.011397354,-0.05053297,0.035689168,-1.0057214
2677.32004746,-0.010325605,-0.0068484107,0.01246262,-0.047359142,0.035200886,-1.0042566
2677.32489618,-0.014586663,-0.007913675,0.013527885,-0.047115,0.0322712,-1.0005945
2677.33004183,-0.016717192,-0.0057831462,0.01246262,-0.047115,0.03324776,-1.001571
2677.33489462,-0.013521398,-0.004717882,0.01246262,-0.048823986,0.031294636,-1.0013269
2677.34006933,-0.012456134,-0.0036526173,0.011397354,-0.049556408,0.03251534,-0.9988856
2677.34489546,-0.014586663,-0.004717882,0.013527885,-0.04980055,0.035445027,-0.99571174
2677.35005891,-0.013521398,-0.0068484107,0.01246262,-0.048335705,0.035689168,-1.0018152
2677.35489619,-0.012456134,-0.0057831462,0.011397354,-0.048091564,0.035689168,-1.008407
2677.36004198,-0.012456134,-0.004717882,0.01246262,-0.047847424,0.033491902,-1.0096277
2677.36489602,-0.010325605,-0.0057831462,0.009266827,-0.048335705,0.03202706,-1.0013269
2677.37004509,-0.0071298117,-0.0068484107,0.010332089,-0.048823986,0.031294636,-0.9935145
2677.37489646,-0.0113908695,-0.0057831462,0.010332089,-0.049556408,0.030806355,-0.9959559
2677.38024866,-0.014586663,-0.0068484107,0.011397354,-0.04980055,0.033736043,-1.0042566
2677.38489634,-0.015651926,-0.004717882,0.011397354,-0.04980055,0.038130574,-1.0074304
2677.39006017,-0.019912984,-0.0057831462,0.013527885,-0.04638258,0.035689168,-1.0037683
2677.39489883,-0.0113908695,-0.0057831462,0.011397354,-0.047847424,0.03275948,-1.0018152
2677.40004504,-0.014586663,-0.004717882,0.01246262,-0.047359142,0.031538777,-1.0020593
2677.40489662,-0.010325605,-0.004717882,0.01246262,-0.048823986,0.0322712,-0.9991297
2677.41004421,-0.014586663,-0.004717882,0.01246262,-0.051753674,0.033980183,-0.9983973
2677.41489602,-0.013521398,-0.0057831462,0.011397354,-0.05004469,0.033980183,-0.9971766
2677.42007086,-0.0113908695,-0.0068484107,0.010332089,-0.04662672,0.033980183,-1.0047449
2677.42489662,-0.013521398,-0.0057831462,0.010332089,-0.04687086,0.035689168,-1.0076746
2677.43005511,-0.013521398,-0.004717882,0.010332089,-0.05028883,0.03300362,-1.0057214
2677.4348966,-0.012456134,-0.0036526173,0.011397354,-0.04980055,0.029829793,-0.99693245
2677.44004661,-0.014586663,-0.0057831462,0.01246262,-0.048579846,0.031294636,-0.9930262
2677.44489717,-0.013521398,-0.0068484107,0.011397354,-0.04980055,0.034468465,-0.9988856
2677.45004419,-0.012456134,-0.0057831462,0.011397354,-0.04980055,0.03617745,-1.0071863
2677.4548966,-0.013521398,-0.0068484107,0.011397354,-0.047847424,0.035200886,-1.0076746
2677.46006763,-0.013521398,-0.004717882,0.01246262,-0.04687086,0.034712605,-1.0027918
2677.46489783,-0.015651926,-0.0036526173,0.011397354,-0.04687086,0.03275948,-0.99937385
2677.47005484,-0.015651926,-0.0057831462,0.01246262,-0.048579846,0.031538777,-0.9991297
2677.47489634,-0.015651926,-0.0057831462,0.01246262,-0.049556408,0.03275948,-1.0008386
2677.48017756,-0.012456134,-0.0057831462,0.010332089,-0.05077711,0.034224324,-0.9974207
2677.48489525,-0.015651926,-0.0057831462,0.010332089,-0.049068127,0.035689168,-1.0001062
2677.49005265,-0.014586663,-0.0057831462,0.013527885,-0.047115,0.034468465,-1.0054773
2677.49489694,-0.015651926,-0.004717882,0.01246262,-0.047603283,0.034712605,-1.0079187
2677.50006707,-0.012456134,-0.004717882,0.01246262,-0.049312267,0.03275948,-1.0035242
2677.50489899,-0.0113908695,-0.0057831462,0.010332089,-0.04980055,0.031538777,-0.9949793
2677.51005939,-0.0113908695,-0.004717882,0.011397354,-0.05028883,0.03251534,-0.9937586
2677.51489586,-0.015651926,-0.0036526173,0.011397354,-0.049312267,0.035200886,-1.0023035
2677.52004508,-0.012456134,-0.0057831462,0.010332089,-0.048091564,0.03617745,-1.0093836
2677.52489545,-0.010325605,-0.0057831462,0.01246262,-0.047359142,0.034712605,-1.0047449
2677.53004134,-0.015651926,-0.0057831462,0.01246262,-0.047359142,0.03275948,-0.999618
2677.53489714,-0.013521398,-0.004717882,0.011397354,-0.049068127,0.031294636,-0.99815315
2677.54006969,-0.014586663,-0.004717882,0.01246262,-0.049312267,0.031294636,-0.9988856
2677.54489714,-0.013521398,-0.004717882,0.01246262,-0.05053297,0.034712605,-0.99986213
2677.55005343,-0.012456134,-0.0068484107,0.01246262,-0.04980055,0.033736043,-1.001571
2677.55489765,-0.015651926,-0.0057831462,0.008201562,-0.048579846,0.034468465,-1.0035242
2677.56004411,-0.010325605,-0.0057831462,0.011397354,-0.04613844,0.037398152,-1.0076746
2677.56489746,-0.015651926,-0.004717882,0.011397354,-0.048823986,0.034224324,-1.006698
2677.57004698,-0.014586663,-0.0036526173,0.011397354,-0.047847424,0.02885323,-1.0001062
2677.57489841,-0.014586663,-0.0036526173,0.010332089,-0.05004469,0.031050496,-0.99204963
2677.58020042,-0.017782457,-0.0036526173,0.010332089,-0.049068127,0.034712605,-0.99522346
2677.58489586,-0.015651926,-0.0057831462,0.013527885,-0.05077711,0.035200886,-1.0062097
2677.59006435,-0.012456134,-0.0057831462,0.01246262,-0.04662672,0.034224324,-1.0091394
2677.5948965,-0.013521398,-0.0057831462,0.009266827,-0.047359142,0.033491902,-1.0042566
2677.60004773,-0.016717192,-0.0057831462,0.010332089,-0.047359142,0.034712605,-0.9988856
2677.6048971,-0.008195076,-0.0068484107,0.009266827,-0.049312267,0.0322712,-0.997909
2677.61004262,-0.010325605,-0.0057831462,0.011397354,-0.049068127,0.031294636,-1.0005945
2677.61489666,-0.013521398,-0.004717882,0.013527885,-0.05028883,0.03275948,-0.999618
2677.62006726,-0.015651926,-0.0057831462,0.011397354,-0.047847424,0.035445027,-1.0018152
2677.62489715,-0.010325605,-0.0068484107,0.01246262,-0.047359142,0.03690987,-1.0018152
2677.63005199,-0.013521398,-0.004717882,0.01246262,-0.048091564,0.03275948,-1.004989
2677.63489666,-0.012456134,-0.0036526173,0.010332089,-0.049312267,0.029829793,-1.004989
2677.64004389,-0.012456134,-0.0057831462,0.011397354,-0.049556408,0.03324776,-0.99522346
2677.64489997,-0.013521398,-0.0068484107,0.011397354,-0.05028883,0.03324776,-0.9942469
2677.65004423,-0.012456134,-0.0057831462,0.011397354,-0.05053297,0.034224324,-1.0013269
2677.65489714,-0.012456134,-0.0057831462,0.010332089,-0.048823986,0.034956746,-1.0093836
2677.66006683,-0.0113908695,-0.0057831462,0.01246262,-0.04613844,0.035200886,-1.0076746
2677.66489698,-0.014586663,-0.004717882,0.01246262,-0.04687086,0.034224324,-1.0001062
2677.67005977,-0.014586663,-0.004717882,0.010332089,-0.047847424,0.030806355,-0.9949793
2677.67489721,-0.015651926,-0.004717882,0.011397354,-0.04980055,0.030318074,-0.99766487
2677.68017794,-0.013521398,-0.0057831462,0.013527885,-0.05077711,0.034468465,-1.0008386
2677.68489586,-0.010325605,-0.007913675,0.01246262,-0.051753674,0.035689168,-1.0013269
2677.69005363,-0.012456134,-0.0057831462,0.011397354,-0.04638258,0.034468465,-1.00328
2677.69489666,-0.013521398,-0.0068484107,0.011397354,-0.04662672,0.033736043,-1.0040125
2677.70006742,-0.0113908695,-0.004717882,0.011397354,-0.048335705,0.03275948,-1.0059656
2677.70489662,-0.0113908695,-0.0057831462,0.010332089,-0.05028883,0.031294636,-0.99986213
2677.71005384,-0.0113908695,-0.004717882,0.011397354,-0.04980055,0.03275948,-0.99400276
2677.71490714,-0.012456134,-0.0057831462,0.01246262,-0.04980055,0.033736043,-0.9949793
2677.72004396,-0.014586663,-0.0057831462,0.01246262,-0.048335705,0.034224324,-1.0052332
2677.72489879,-0.010325605,-0.0057831462,0.01246262,-0.047847424,0.035689168,-1.0091394
2677.73005054,-0.0113908695,-0.004717882,0.011397354,-0.04662672,0.035200886,-1.0042566
2677.73489726,-0.012456134,-0.004717882,0.01246262,-0.048091564,0.031050496,-0.99693245
2677.74006999,-0.013521398,-0.0057831462,0.011397354,-0.048091564,0.030318074,-0.99522346
2677.7448973,-0.012456134,-0.0057831462,0.011397354,-0.05004469,0.033491902,-0.99937385
2677.75005724,-0.0113908695,-0.0057831462,0.011397354,-0.05028883,0.035689168,-1.0027918
2677.75489768,-0.0113908695,-0.0057831462,0.01246262,-0.049556408,0.035445027,-1.0047449
2677.76004499,-0.0113908695,-0.0068484107,0.011397354,-0.04662672,0.033980183,-1.0027918
2677.76489741,-0.009260341,-0.0068484107,0.010332089,-0.047359142,0.03324776,-1.0047449
2677.77004806,-0.013521398,-0.004717882,0.010332089,-0.04980055,0.033980183,-1.0047449
2677.77489835,-0.015651926,-0.004717882,0.01246262,-0.048823986,0.03202706,-0.9966883
2677.78020277,-0.013521398,-0.0057831462,0.011397354,-0.05102125,0.03202706,-0.9930262
2677.78489711,-0.0113908695,-0.0068484107,0.010332089,-0.048579846,0.034712605,-0.9988856
2677.79006144,-0.014586663,-0.004717882,0.01246262,-0.047847424,0.03715401,-1.0079187
2677.79489698,-0.013521398,-0.0057831462,0.01246262,-0.0458943,0.034712605,-1.0096277
2677.800043,-0.014586663,-0.004717882,0.011397354,-0.049068127,0.031782918,-1.0023035
2677.80489674,-0.0113908695,-0.0057831462,0.010332089,-0.047847424,0.03251534,-0.9954676
2677.8100423,-0.013521398,-0.0036526173,0.011397354,-0.049556408,0.03324776,-0.99693245
2677.8148982,-0.010325605,-0.0057831462,0.011397354,-0.051265392,0.035200886,-1.0030359
2677.82006909,-0.012456134,-0.0068484107,0.01246262,-0.051753674,0.034712605,-1.0037683
2677.82489833,-0.015651926,-0.004717882,0.01246262,-0.047115,0.034712605,-1.00328
2677.83005926,-0.013521398,-0.004717882,0.010332089,-0.04662672,0.034224324,-1.0025476
2677.8348965,-0.008195076,-0.0036526173,0.010332089,-0.048335705,0.0322712,-1.0040125
2677.84004598,-0.013521398,-0.004717882,0.01246262,-0.048335705,0.031294636,-1.0013269
2677.84489872,-0.012456134,-0.004717882,0.011397354,-0.05077711,0.031050496,-0.9962
2677.85004303,-0.012456134,-0.004717882,0.011397354,-0.05004469,0.035689168,-0.9962
2677.85489746,-0.013521398,-0.0057831462,0.011397354,-0.048335705,0.03666573,-1.0042566
2677.86006813,-0.015651926,-0.0057831462,0.01246262,-0.04638258,0.034712605,-1.010116
2677.86489783,-0.017782457,-0.0036526173,0.011397354,-0.047359142,0.034712605,-1.0057214
2677.87005613,-0.012456134,-0.0036526173,0.011397354,-0.049068127,0.031782918,-0.997909
2677.87489759,-0.015651926,-0.0057831462,0.011397354,-0.048335705,0.030806355,-0.99400276
2677.88017792,-0.012456134,-0.0057831462,0.011397354,-0.05028883,0.033736043,-0.99864143
2677.8848965,-0.010325605,-0.0057831462,0.010332089,-0.05077711,0.033980183,-1.0030359
2677.89005269,-0.015651926,-0.0057831462,0.011397354,-0.048335705,0.034712605,-1.0052332
2677.8948973,-0.015651926,-0.0057831462,0.013527885,-0.047359142,0.034712605,-1.0023035
2677.90006802,-0.017782457,-0.004717882,0.01246262,-0.047603283,0.03251534,-1.0037683
2677.90489758,-0.013521398,-0.004717882,0.01246262,-0.048579846,0.031050496,-1.0037683
2677.9100571,-0.008195076,-0.0068484107,0.011397354,-0.04980055,0.031782918,-0.9974207
2677.91489694,-0.012456134,-0.0068484107,0.010332089,-0.04980055,0.034712605,-0.9954676
2677.92004496,-0.012456134,-0.0068484107,0.01246262,-0.049556408,0.035200886,-0.9991297
2677.92489625,-0.014586663,-0.004717882,0.013527885,-0.047847424,0.034956746,-1.006698
2677.93004431,-0.016717192,-0.004717882,0.01246262,-0.04638258,0.035200886,-1.0086511
2677.93489714,-0.016717192,-0.0057831462,0.010332089,-0.048823986,0.033491902,-1.0027918
2677.94006817,-0.012456134,-0.004717882,0.011397354,-0.04980055,0.030806355,-0.99522346
2677.94489746,-0.010325605,-0.004717882,0.010332089,-0.049068127,0.031782918,-0.9947352
2677.95005593,-0.012456134,-0.0057831462,0.010332089,-0.05102125,0.03324776,-1.0018152
2677.9548973,-0.014586663,-0.0057831462,0.01246262,-0.051509533,0.03593331,-1.0057214
2677.96004539,-0.017782457,-0.004717882,0.01246262,-0.04687086,0.033980183,-1.0052332
2677.96489722,-0.015651926,-0.0036526173,0.01246262,-0.047359142,0.034224324,-1.0023035
2677.97004302,-0.012456134,-0.004717882,0.011397354,-0.04687086,0.03275948,-1.00328
2677.97489781,-0.0113908695,-0.0057831462,0.011397354,-0.049312267,0.031782918,-1.0001062
2677.98021794,-0.014586663,-0.0057831462,0.01246262,-0.049068127,0.031782918,-0.99644417
2677.98489767,-0.014586663,-0.0068484107,0.01246262,-0.04980055,0.033736043,-0.9949793
2677.99075475,-0.012456134,-0.007913675,0.010332089,-0.048579846,0.033980183,-1.0023035
2677.99489833,-0.010325605,-0.0068484107,0.01246262,-0.04687086,0.034468465,-1.0081629
2678.00004694,-0.014586663,-0.0057831462,0.011397354,-0.048579846,0.033736043,-1.0076746
2678.00489751,-0.016717192,-0.0057831462,0.01246262,-0.049556408,0.03202706,-0.99986213
2678.0100428,-0.010325605,-0.0057831462,0.010332089,-0.04980055,0.031782918,-0.99449104
2678.01489808,-0.015651926,-0.004717882,0.011397354,-0.05004469,0.035200886,-0.9974207
2678.02006878,-0.010325605,-0.0068484107,0.010332089,-0.04980055,0.035689168,-1.0037683
2678.02489757,-0.012456134,-0.0068484107,0.01246262,-0.048823986,0.034468465,-1.0062097
2678.03005634,-0.010325605,-0.0068484107,0.010332089,-0.047359142,0.034468465,-1.0023035
2678.03489786,-0.010325605,-0.0068484107,0.011397354,-0.047847424,0.03300362,-1.0008386
2678.04004598,-0.0113908695,-0.0057831462,0.011397354,-0.049556408,0.031782918,-1.0023035
2678.04489755,-0.010325605,-0.0036526173,0.010332089,-0.049312267,0.031538777,-0.999618
2678.05004508,-0.012456134,-0.0057831462,0.01246262,-0.049312267,0.034468465,-0.9974207
2678.05489666,-0.009260341,-0.0057831462,0.011397354,-0.048823986,0.03617745,-0.9991297
2678.0600715,-0.0113908695,-0.0068484107,0.01246262,-0.048579846,0.03617745,-1.0062097
2678.06489661,-0.014586663,-0.004717882,0.011397354,-0.047115,0.034956746,-1.008407
2678.07005582,-0.015651926,-0.004717882,0.011397354,-0.048823986,0.03300362,-1.0047449
2678.07489682,-0.013521398,-0.004717882,0.011397354,-0.048091564,0.030806355,-0.9954676
2678.08017667,-0.012456134,-0.0057831462,0.009266827,-0.05028883,0.031782918,-0.9930262
2678.08489798,-0.013521398,-0.0057831462,0.011397354,-0.05077711,0.034468465,-0.99986213
2678.09005347,-0.013521398,-0.004717882,0.01246262,-0.04980055,0.034712605,-1.0064539
2678.09489797,-0.0113908695,-0.0057831462,0.01246262,-0.047359142,0.035689168,-1.004989
2678.10006768,-0.015651926,-0.004717882,0.01246262,-0.047359142,0.033736043,-1.0035242
2678.10489692,-0.012456134,-0.004717882,0.011397354,-0.047359142,0.033491902,-1.0030359
2678.11005424,-0.013521398,-0.0057831462,0.01246262,-0.049312267,0.03275948,-1.0003504
2678.114898,-0.014586663,-0.004717882,0.01246262,-0.05077711,0.0322712,-0.9983973
2678.12004553,-0.012456134,-0.0057831462,0.011397354,-0.049312267,0.035200886,-0.997909
2678.12490134,-0.013521398,-0.0057831462,0.01246262,-0.047359142,0.034956746,-1.0013269
2678.13004305,-0.014586663,-0.004717882,0.013527885,-0.04638258,0.035200886,-1.0064539
2678.13489689,-0.013521398,-0.0057831462,0.01246262,-0.047847424,0.033980183,-1.0059656
2678.14006722,-0.013521398,-0.0036526173,0.009266827,-0.049312267,0.031294636,-0.9937586
2678.1448982,-0.013521398,-0.0036526173,0.009266827,-0.049312267,0.031294636,-0.9937586
2678.1500603,-0.0113908695,-0.0068484107,0.010332089,-0.049312267,0.03593331,-1.00328
2678.15489778,-0.0113908695,-0.0068484107,0.010332089,-0.049312267,0.03593331,-1.00328
2678.16004587,-0.014586663,-0.0057831462,0.010332089,-0.04687086,0.035200886,-1.0047449
2678.1648973,-0.014586663,-0.0036526173,0.010332089,-0.04687086,0.035200886,-1.0047449
2678.1700469,-0.0113908695,-0.004717882,0.010332089,-0.047359142,0.031538777,-1.0003504
2678.1748965,-0.013521398,-0.0057831462,0.01246262,-0.05028883,0.031538777,-0.99693245
2678.18020256,-0.010325605,-0.0068484107,0.01246262,-0.05053297,0.033980183,-0.9974207
2678.18489777,-0.010325605,-0.0068484107,0.010332089,-0.04980055,0.034956746,-1.0008386
2678.19006286,-0.010325605,-0.0057831462,0.010332089,-0.047359142,0.03666573,-1.004989
2678.19489724,-0.010325605,-0.004717882,0.011397354,-0.04687086,0.034712605,-1.0074304
2678.20004468,-0.013521398,-0.0057831462,0.010332089,-0.048579846,0.031294636,-1.0047449
2678.20489751,-0.009260341,-0.0068484107,0.01246262,-0.049312267,0.031294636,-0.9974207
2678.21004363,-0.0113908695,-0.0057831462,0.011397354,-0.048823986,0.034224324,-0.99400276
2678.21489626,-0.013521398,-0.0057831462,0.011397354,-0.049312267,0.034224324,-0.999618
2678.22006908,-0.013521398,-0.0057831462,0.011397354,-0.049312267,0.035200886,-1.0062097
2678.22489667,-0.015651926,-0.0036526173,0.010332089,-0.047847424,0.035445027,-1.0059656
2678.23005894,-0.012456134,-0.004717882,0.011397354,-0.04687086,0.033736043,-1.001571
2678.23489792,-0.012456134,-0.004717882,0.011397354,-0.048335705,0.031782918,-0.999618
2678.24004427,-0.010325605,-0.0036526173,0.010332089,-0.047603283,0.031294636,-0.997909
2678.24489746,-0.013521398,-0.0057831462,0.013527885,-0.05028883,0.033980183,-0.99937385
2678.25004735,-0.015651926,-0.004717882,0.010332089,-0.051265392,0.035200886,-0.999618
2678.25489715,-0.014586663,-0.004717882,0.011397354,-0.047847424,0.03617745,-1.0035242
2678.2600671,-0.012456134,-0.004717882,0.010332089,-0.04638258,0.034712605,-1.0069422
2678.2648973,-0.013521398,-0.0057831462,0.010332089,-0.04662672,0.030806355,-1.0069422
2678.27005682,-0.014586663,-0.004717882,0.011397354,-0.04980055,0.0322712,-0.99986213
2678.27489826,-0.012456134,-0.0057831462,0.013527885,-0.048335705,0.03300362,-0.99400276
2678.2801766,-0.013521398,-0.004717882,0.010332089,-0.051753674,0.0322712,-0.99571174
2678.28489682,-0.013521398,-0.0057831462,0.011397354,-0.05004469,0.03275948,-1.0037683
2678.29005281,-0.015651926,-0.0057831462,0.01246262,-0.049312267,0.03617745,-1.0076746
2678.29489945,-0.014586663,-0.0057831462,0.010332089,-0.048091564,0.03617745,-1.0045007
2678.3000678,-0.012456134,-0.0057831462,0.011397354,-0.048579846,0.03275948,-1.0018152
2678.30489854,-0.013521398,-0.0036526173,0.011397354,-0.047847424,0.029829793,-0.99864143
2678.31005848,-0.013521398,-0.0057831462,0.011397354,-0.04980055,0.033980183,-0.9983973
2678.31489757,-0.012456134,-0.0036526173,0.010332089,-0.05028883,0.037398152,-0.99864143
2678.32004598,-0.012456134,-0.004717882,0.009266827,-0.05028883,0.033980183,-1.0027918
2678.32489768,-0.014586663,-0.0036526173,0.01246262,-0.04662672,0.033736043,-1.0040125
2678.3300434,-0.009260341,-0.0068484107,0.011397354,-0.047847424,0.034468465,-1.0052332
2678.33489899,-0.015651926,-0.0057831462,0.01246262,-0.047847424,0.033736043,-1.0037683
2678.34006801,-0.015651926,-0.0057831462,0.011397354,-0.05004469,0.031782918,-0.99644417
2678.34489698,-0.0113908695,-0.0057831462,0.011397354,-0.049068127,0.031782918,-0.9947352
2678.35005797,-0.014586663,-0.004717882,0.01246262,-0.05028883,0.033491902,-0.99937385
2678.35489781,-0.014586663,-0.004717882,0.011397354,-0.048823986,0.03617745,-1.006698
2678.36004788,-0.013521398,-0.004717882,0.011397354,-0.04687086,0.03593331,-1.0079187
2678.36489746,-0.014586663,-0.0057831462,0.011397354,-0.04687086,0.0322712,-1.0045007
2678.37004682,-0.012456134,-0.004717882,0.01246262,-0.048579846,0.0322712,-1.0001062
2678.37489682,-0.012456134,-0.0057831462,0.01246262,-0.049556408,0.0322712,-0.9959559
2678.38025131,-0.012456134,-0.0057831462,0.01246262,-0.049312267,0.033736043,-0.99766487
2678.38489582,-0.014586663,-0.004717882,0.01246262,-0.05077711,0.034224324,-0.99986213
2678.39006522,-0.012456134,-0.0057831462,0.010332089,-0.047847424,0.033736043,-1.00328
2678.39489746,-0.0113908695,-0.004717882,0.011397354,-0.04662672,0.034712605,-1.004989
2678.40004472,-0.013521398,-0.004717882,0.01246262,-0.048335705,0.033736043,-1.0047449
2678.4048974,-0.013521398,-0.004717882,0.011397354,-0.049068127,0.031294636,-1.0013269
2678.41004566,-0.013521398,-0.0057831462,0.011397354,-0.048823986,0.03202706,-0.9954676
2678.41489772,-0.010325605,-0.0068484107,0.011397354,-0.05028883,0.035445027,-0.9962
2678.42007023,-0.012456134,-0.0068484107,0.010332089,-0.04980055,0.03617745,-1.0023035
2678.42489834,-0.012456134,-0.004717882,0.01246262,-0.048335705,0.034956746,-1.0076746
2678.43005628,-0.02097825,-0.004717882,0.011397354,-0.047359142,0.033980183,-1.0045007
2678.43489737,-0.014586663,-0.004717882,0.010332089,-0.047603283,0.03275948,-0.99986213
2678.440045,-0.014586663,-0.0057831462,0.010332089,-0.048823986,0.030806355,-0.9962
2678.44489755,-0.016717192,-0.0068484107,0.013527885,-0.051509533,0.031538777,-0.997909
2678.45004437,-0.01884772,-0.004717882,0.011397354,-0.05077711,0.034224324,-1.0018152
2678.45489778,-0.012456134,-0.0057831462,0.01246262,-0.049312267,0.03617745,-1.0040125
2678.46006933,-0.014586663,-0.0057831462,0.011397354,-0.04638258,0.035200886,-1.0057214
2678.46489817,-0.012456134,-0.0068484107,0.01246262,-0.04638258,0.033736043,-1.004989
2678.47006246,-0.013521398,-0.0057831462,0.011397354,-0.049312267,0.03251534,-1.0025476
2678.4748977,-0.012456134,-0.004717882,0.011397354,-0.049068127,0.03275948,-0.99522346
2678.48018198,-0.010325605,-0.0057831462,0.010332089,-0.049556408,0.03300362,-0.99449104
2678.48490144,-0.0113908695,-0.007913675,0.011397354,-0.04980055,0.033736043,-0.99815315
2678.4900552,-0.010325605,-0.0068484107,0.011397354,-0.049068127,0.03642159,-1.0069422
2678.49489694,-0.012456134,-0.004717882,0.01246262,-0.047115,0.03642159,-1.0081629
2678.50006694,-0.012456134,-0.0068484107,0.013527885,-0.048579846,0.031782918,-1.0047449
