timestamp,gx,gy,gz,ax,ay,az
275.23474011,-0.02097825,-0.0025873529,0.01991947,-0.82863617,-0.06422765,-9.784698
275.23913,-0.023108779,-0.0025873529,0.01991947,-0.79271084,-0.05704259,-9.794278
275.24456833,-0.022043515,-0.0015220884,0.020984735,-0.79031587,-0.018722279,-9.789488
275.24880453,-0.02097825,-0.0025873529,0.01991947,-0.7639706,-0.006747181,-9.837388
275.25474044,-0.02097825,-0.00045682397,0.023115266,-0.7735507,-0.023512317,-9.875708
275.25923625,-0.022043515,0.0006084405,0.023115266,-0.79031587,-0.042672474,-9.846968
275.26456655,-0.022043515,0.001673705,0.023115266,-0.7951059,-0.018722279,-9.794278
275.2689398,-0.02097825,0.0027389694,0.024180528,-0.814266,-0.033092394,-9.765537
275.27474199,-0.023108779,0.001673705,0.023115266,-0.79989594,-0.006747181,-9.782303
275.27908247,-0.02097825,0.001673705,0.024180528,-0.80468595,0.0076229367,-9.851758
275.28468683,-0.022043515,0.0027389694,0.020984735,-0.7639706,0.005227917,-9.858943
275.28881984,-0.02097825,0.0027389694,0.02205,-0.7519955,-0.0043521617,-9.834992
275.29466464,-0.02097825,0.0059347637,0.018854205,-0.7519955,-0.033092394,-9.815832
275.29881916,-0.023108779,0.007000027,0.01991947,-0.7687607,-0.042672474,-9.784698
275.30474044,-0.02097825,0.007000027,0.017788943,-0.79271084,-0.040277455,-9.772722
275.30912891,-0.019912984,0.0059347637,0.016723678,-0.77834076,-0.0091422,-9.777513
275.31473897,-0.019912984,0.007000027,0.015658412,-0.7591806,0.017203014,-9.820622
275.31891576,-0.022043515,0.008065293,0.01246262,-0.70649016,0.012412976,-9.861338
275.32473969,-0.02097825,0.009130556,0.014593147,-0.7256503,-0.01393224,-9.858943
275.32902241,-0.023108779,0.007000027,0.013527885,-0.7304404,0.021993056,-9.832598
275.33473885,-0.016717192,0.008065293,0.011397354,-0.7304404,0.0028328972,-9.770328
275.33896814,-0.015651926,0.007000027,0.010332089,-0.7591806,0.00043787766,-9.758352
275.34473975,-0.019912984,0.008065293,0.013527885,-0.7256503,0.04833827,-9.784698
275.34880861,-0.022043515,0.007000027,0.01246262,-0.7256503,0.07468349,-9.844573
275.35473866,-0.017782457,0.009130556,0.013527885,-0.71128017,0.06031337,-9.839783
275.35891012,-0.019912984,0.0101958215,0.013527885,-0.7376254,0.036363173,-9.832598
275.36474156,-0.016717192,0.011261085,0.013527885,-0.7040951,0.04833827,-9.7990675
275.36916573,-0.016717192,0.0101958215,0.014593147,-0.70649016,0.06510341,-9.777513
275.37474122,-0.013521398,0.0101958215,0.014593147,-0.7017001,0.05073329,-9.794278
275.3790987,-0.014586663,0.0101958215,0.013527885,-0.70649016,0.06989345,-9.818228
275.38467996,-0.014586663,0.0101958215,0.008201562,-0.69212,0.081868544,-9.832598
275.38892576,-0.0113908695,0.0101958215,0.010332089,-0.67056483,0.05791835,-9.854153
275.39473984,-0.013521398,0.0101958215,0.009266827,-0.67295986,0.031573135,-9.856547
275.39885275,-0.012456134,0.011261085,0.006071031,-0.67056483,0.04115321,-9.784698
275.40474616,-0.012456134,0.011261085,0.003940504,-0.67774993,0.04833827,-9.758352
275.40901492,-0.013521398,0.0101958215,0.003940504,-0.6490097,0.055523332,-9.767933
275.41474587,-0.010325605,0.009130556,0.0028752387,-0.6585898,0.11060878,-9.837388
275.41905164,-0.010325605,0.009130556,0.0028752387,-0.6322445,0.1130038,-9.875708
275.42465533,-0.009260341,0.008065293,0.0050057694,-0.65619475,0.06031337,-9.866128
275.42883691,-0.009260341,0.0101958215,0.0018099733,-0.6370346,0.031573135,-9.823017
275.4347398,-0.009260341,0.009130556,0.0028752387,-0.62984955,0.055523332,-9.777513
275.43913032,-0.009260341,0.009130556,0.003940504,-0.64421964,0.045943253,-9.782303
275.44473964,-0.008195076,0.009130556,0.0050057694,-0.6394296,0.045943253,-9.813437
275.4490616,-0.0039340183,0.007000027,0.003940504,-0.64421964,0.07468349,-9.837388
275.45467496,-0.0071298117,0.007000027,0.0050057694,-0.59152925,0.06031337,-9.863733
275.45884605,-0.0039340183,0.0059347637,0.0050057694,-0.6011093,0.019598035,-9.861338
275.4647009,-0.002868753,0.007000027,0.0050057694,-0.6106894,-0.001957142,-9.827807
275.46881978,-0.0071298117,0.008065293,0.0028752387,-0.6202694,0.0076229367,-9.777513
275.47473978,-0.0039340183,0.007000027,0.0018099733,-0.6274545,-0.001957142,-9.782303
275.47914284,-0.002868753,0.0059347637,0.0018099733,-0.63463956,-0.006747181,-9.8062525
275.48473945,-0.006064547,0.0038042339,0.0007447116,-0.5771591,0.012412976,-9.866128
275.48896,-0.0039340183,0.0038042339,0.0007447116,-0.59152925,0.012412976,-9.866128
275.49474147,-0.0071298117,0.0048694983,-0.00032055378,-0.5891342,-0.049857534,-9.846968
275.4989046,-0.004999283,0.0038042339,0.0007447116,-0.6058994,-0.037882436,-9.787093
275.5047401,-0.0039340183,0.0038042339,0.0018099733,-0.57955414,-0.025907338,-9.765537
275.5089734,-0.0039340183,0.0038042339,0.0007447116,-0.5987143,-0.042672474,-9.779908
275.51473962,-0.0039340183,0.001673705,0.0007447116,-0.57955414,-0.054647572,-9.827807
275.5189935,-0.008195076,0.0006084405,0.0018099733,-0.5723691,-0.035487417,-9.844573
275.5247392,-0.0071298117,0.001673705,-0.0013858192,-0.55320895,-0.040277455,-9.854153
275.52900141,-0.006064547,-0.00045682397,0.0018099733,-0.5723691,-0.083387814,-9.846968
275.53470188,-0.0039340183,-0.00045682397,-0.0013858192,-0.57955414,-0.08578283,-9.823017
275.5388019,-0.004999283,-0.0025873529,0.0018099733,-0.5867392,-0.061832633,-9.789488
275.54474033,-0.006064547,-0.0025873529,0.0018099733,-0.57955414,-0.061832633,-9.765537
275.54895771,-0.002868753,-0.0036526173,0.0028752387,-0.555604,-0.083387814,-9.820622
275.55473985,-0.0071298117,-0.0057831462,0.0018099733,-0.560394,-0.061832633,-9.866128
275.5589206,-0.0018034894,-0.0057831462,0.0028752387,-0.56757903,-0.07620275,-9.844573
275.56474087,-0.004999283,-0.0036526173,0.003940504,-0.59152925,-0.10494299,-9.820622
275.56899882,-0.004999283,-0.0057831462,0.0028752387,-0.56997406,-0.121708125,-9.777513
275.57474,-0.0071298117,-0.0068484107,0.0018099733,-0.5891342,-0.09057287,-9.779908
275.57897175,-0.008195076,-0.00897894,0.0028752387,-0.56757903,-0.061832633,-9.823017
275.58473927,-0.008195076,-0.00897894,0.0050057694,-0.5843442,-0.07620275,-9.858943
275.58925048,-0.0071298117,-0.00897894,0.0018099733,-0.54602385,-0.10494299,-9.858943
275.59474118,-0.010325605,-0.00897894,0.006071031,-0.55799896,-0.09536291,-9.832598
275.59902235,-0.009260341,-0.010044204,0.0050057694,-0.57476413,-0.11691809,-9.811043
275.60474058,-0.009260341,-0.00897894,0.0028752387,-0.5891342,-0.11212805,-9.7918825
275.60901298,-0.0071298117,-0.0111094685,0.0018099733,-0.61308444,-0.09536291,-9.779908
275.61465484,-0.009260341,-0.0111094685,0.0028752387,-0.59631926,-0.066622674,-9.7990675
275.61886316,-0.009260341,-0.013239997,0.0018099733,-0.56997406,-0.06422765,-9.856547
275.62474016,-0.010325605,-0.014305262,0.003940504,-0.56757903,-0.10015295,-9.875708
275.62908096,-0.012456134,-0.013239997,0.0050057694,-0.6058994,-0.10015295,-9.851758
275.6347392,-0.010325605,-0.014305262,0.003940504,-0.61308444,-0.080992796,-9.801463
275.63894468,-0.009260341,-0.013239997,0.006071031,-0.62984955,-0.07620275,-9.755958
275.64473952,-0.010325605,-0.014305262,0.006071031,-0.6250595,-0.080992796,-9.775118
275.64930229,-0.013521398,-0.01643579,0.0071362965,-0.6202694,-0.05704259,-9.832598
275.65455171,-0.012456134,-0.014305262,0.0071362965,-0.60829437,-0.06901769,-9.861338
275.65899447,-0.010325605,-0.015370526,0.0071362965,-0.6011093,-0.10015295,-9.851758
275.66474157,-0.013521398,-0.01643579,0.0071362965,-0.6058994,-0.10494299,-9.834992
275.66887252,-0.013521398,-0.01643579,0.0071362965,-0.6250595,-0.09536291,-9.803858
275.67474016,-0.012456134,-0.01643579,0.0050057694,-0.6633798,-0.10015295,-9.784698
275.67923402,-0.013521398,-0.017501056,0.0050057694,-0.6418246,-0.080992796,-9.789488
275.68449741,-0.015651926,-0.01643579,0.006071031,-0.62266445,-0.054647572,-9.832598
275.68915782,-0.013521398,-0.01643579,0.0050057694,-0.6202694,-0.054647572,-9.866128
275.69473851,-0.016717192,-0.019631583,0.0050057694,-0.62266445,-0.07141271,-9.870918
275.69906264,-0.015651926,-0.017501056,0.0050057694,-0.6394296,-0.061832633,-9.830202
275.7047388,-0.015651926,-0.01856632,0.0050057694,-0.6490097,-0.07620275,-9.767933
275.70888755,-0.015651926,-0.019631583,0.0028752387,-0.6633798,-0.045067493,-9.765537
275.71474064,-0.014586663,-0.020696849,0.0071362965,-0.66816986,-0.033092394,-9.803858
275.71910781,-0.012456134,-0.019631583,0.006071031,-0.68014497,-0.023512317,-9.861338
275.72464478,-0.014586663,-0.01643579,0.009266827,-0.67295986,-0.0091422,-9.875708
275.72886208,-0.016717192,-0.01643579,0.0071362965,-0.68733,-0.01393224,-9.844573
275.73474039,-0.013521398,-0.01856632,0.008201562,-0.67774993,-0.033092394,-9.808648
275.73902939,-0.0113908695,-0.020696849,0.010332089,-0.69212,-0.021117298,-9.782303
275.74453223,-0.014586663,-0.019631583,0.009266827,-0.72086024,-0.021117298,-9.794278
275.74888726,-0.013521398,-0.019631583,0.009266827,-0.72086024,0.010017957,-9.803858
275.75474109,-0.015651926,-0.01856632,0.008201562,-0.7017001,0.0028328972,-9.827807
275.7591375,-0.014586663,-0.017501056,0.008201562,-0.69212,-0.018722279,-9.854153
275.76474144,-0.014586663,-0.017501056,0.009266827,-0.68972504,-0.023512317,-9.846968
275.76887604,-0.012456134,-0.01856632,0.0071362965,-0.7424154,-0.033092394,-9.784698
275.77473847,-0.012456134,-0.017501056,0.0071362965,-0.7519955,-0.021117298,-9.765537
275.7791508,-0.015651926,-0.01643579,0.0071362965,-0.74002045,0.010017957,-9.794278
275.7847393,-0.014586663,-0.01643579,0.0050057694,-0.72086024,0.026783096,-9.839783
275.78884494,-0.010325605,-0.017501056,0.0071362965,-0.70649016,0.033968154,-9.870918
275.79474108,-0.014586663,-0.01643579,0.0050057694,-0.71846527,0.0028328972,-9.861338
275.79922718,-0.013521398,-0.01643579,0.0071362965,-0.7256503,-0.006747181,-9.803858
275.80467881,-0.010325605,-0.017501056,0.0071362965,-0.7591806,-0.006747181,-9.760748
275.80888272,-0.012456134,-0.015370526,0.0071362965,-0.7567856,-0.001957142,-9.779908
275.81474032,-0.0113908695,-0.015370526,0.010332089,-0.77834076,0.029178115,-9.784698
275.81898508,-0.014586663,-0.013239997,0.008201562,-0.75439054,0.05073329,-9.820622
275.82474177,-0.010325605,-0.013239997,0.008201562,-0.72804534,0.019598035,-9.851758
275.82887803,-0.009260341,-0.014305262,0.0071362965,-0.71846527,-0.006747181,-9.849362
275.83473902,-0.012456134,-0.012174733,0.009266827,-0.74002045,-0.01153722,-9.827807
275.83905789,-0.012456134,-0.012174733,0.009266827,-0.78792083,-0.006747181,-9.763143
275.84474048,-0.009260341,-0.013239997,0.0050057694,-0.7639706,0.014807995,-9.789488
275.84882647,-0.009260341,-0.013239997,0.0050057694,-0.7639706,0.014807995,-9.789488
275.8547396,-0.0113908695,-0.012174733,0.0050057694,-0.71607023,0.021993056,-9.866128
275.85922416,-0.0113908695,-0.012174733,0.0050057694,-0.71607023,0.021993056,-9.866128
275.86465844,-0.008195076,-0.010044204,0.003940504,-0.7687607,-0.05943761,-9.789488
275.86888875,-0.008195076,-0.010044204,0.003940504,-0.7687607,-0.05943761,-9.789488
275.87473904,-0.0113908695,-0.010044204,0.0050057694,-0.7591806,0.012412976,-9.779908
275.87915614,-0.0113908695,-0.010044204,0.0050057694,-0.7591806,0.012412976,-9.779908
275.88474016,-0.008195076,-0.00897894,0.003940504,-0.75439054,0.010017957,-9.846968
275.88887042,-0.008195076,-0.00897894,0.003940504,-0.75439054,0.010017957,-9.846968
275.89460169,-0.008195076,-0.0068484107,0.006071031,-0.7304404,-0.01393224,-9.837388
275.89886496,-0.008195076,-0.0068484107,0.006071031,-0.7304404,-0.01393224,-9.837388
275.90474119,-0.009260341,-0.007913675,0.0050057694,-0.7615756,-0.023512317,-9.763143
275.90912613,-0.009260341,-0.007913675,0.0050057694,-0.7615756,-0.023512317,-9.763143
275.91474121,-0.008195076,-0.0057831462,0.003940504,-0.7687607,-0.006747181,-9.827807
275.91900284,-0.008195076,-0.0057831462,0.003940504,-0.7687607,-0.006747181,-9.827807
275.92474049,-0.0071298117,-0.0057831462,0.0071362965,-0.74002045,-0.028302357,-9.870918
275.92902496,-0.0071298117,-0.0057831462,0.0071362965,-0.74002045,-0.028302357,-9.870918
275.93468086,-0.008195076,-0.0025873529,0.0028752387,-0.7591806,-0.042672474,-9.770328
275.93885333,-0.008195076,-0.0025873529,0.0028752387,-0.7591806,-0.042672474,-9.770328
275.94473897,-0.010325605,-0.004717882,0.0007447116,-0.74481046,-0.001957142,-9.808648
275.94884969,-0.010325605,-0.004717882,0.0007447116,-0.74481046,-0.001957142,-9.808648
275.95464801,-0.012456134,-0.0025873529,0.0007447116,-0.7088852,-0.028302357,-9.856547
275.95884064,-0.012456134,-0.0025873529,0.0007447116,-0.7088852,-0.028302357,-9.856547
275.9647408,-0.008195076,-0.00045682397,0.0007447116,-0.71607023,-0.037882436,-9.830202
275.96917244,-0.006064547,-0.0015220884,0.0018099733,-0.74002045,-0.030697376,-9.775118
275.97474032,-0.0071298117,-0.0015220884,-0.00032055378,-0.74002045,-0.045067493,-9.775118
275.97899661,-0.008195076,-0.0015220884,0.003940504,-0.7232553,-0.023512317,-9.808648
275.98474016,-0.010325605,-0.0015220884,0.0018099733,-0.7136752,0.00043787766,-9.846968
275.98909783,-0.009260341,-0.00045682397,0.0028752387,-0.66816986,-0.01632726,-9.866128
275.99473968,-0.010325605,0.0006084405,0.0028752387,-0.71846527,-0.08578283,-9.849362
275.99883639,-0.010325605,0.0006084405,0.0028752387,-0.71846527,-0.08578283,-9.849362
276.00474012,-0.009260341,-0.00045682397,0.003940504,-0.72804534,-0.033092394,-9.739192
276.00910675,-0.006064547,0.0006084405,-0.0013858192,-0.71128017,-0.033092394,-9.779908
276.01474035,-0.006064547,0.0006084405,0.0007447116,-0.7017001,-0.06422765,-9.842177
276.01904665,-0.0113908695,-0.00045682397,-0.00032055378,-0.67774993,-0.037882436,-9.854153
276.02474003,-0.008195076,-0.00045682397,0.0007447116,-0.68014497,-0.01632726,-9.846968
276.02899429,-0.0113908695,0.0006084405,-0.00032055378,-0.68972504,-0.07620275,-9.856547
276.03474042,-0.0113908695,0.0006084405,-0.00032055378,-0.69212,-0.08578283,-9.794278
276.03903016,-0.009260341,0.0006084405,-0.0024510846,-0.7040951,-0.042672474,-9.777513
276.04474056,-0.009260341,0.001673705,0.0007447116,-0.68972504,-0.001957142,-9.772722
276.04914898,-0.009260341,-0.00045682397,-0.00032055378,-0.67774993,-0.030697376,-9.818228
276.05473901,-0.009260341,-0.0015220884,-0.0013858192,-0.63463956,-0.05704259,-9.851758
276.05883237,-0.0113908695,0.0006084405,0.0007447116,-0.6514047,-0.035487417,-9.875708
276.06474125,-0.009260341,0.0006084405,-0.00032055378,-0.6657748,-0.033092394,-9.818228
276.06904179,-0.008195076,0.001673705,-0.0024510846,-0.68733,-0.05943761,-9.770328
276.07474044,-0.009260341,-0.00045682397,-0.0013858192,-0.67295986,-0.049857534,-9.779908
276.07911695,-0.010325605,-0.0015220884,-0.0024510846,-0.6657748,0.005227917,-9.808648
276.08474064,-0.010325605,-0.0015220884,-0.00032055378,-0.6490097,-0.0043521617,-9.866128
276.08899714,-0.013521398,-0.0015220884,-0.00032055378,-0.6250595,-0.045067493,-9.858943
276.09474085,-0.012456134,-0.0015220884,-0.0024510846,-0.6154794,-0.054647572,-9.825413
276.09920333,-0.010325605,-0.0015220884,-0.0024510846,-0.6466147,-0.040277455,-9.801463
276.10442804,-0.010325605,-0.0015220884,-0.0024510846,-0.6490097,-0.054647572,-9.782303
276.10898575,-0.010325605,-0.0015220884,-0.0024510846,-0.6633798,-0.042672474,-9.775118
276.1147413,-0.012456134,-0.0025873529,-0.0013858192,-0.6633798,-0.025907338,-9.811043
276.11905273,-0.0113908695,-0.0025873529,0.0007447116,-0.6058994,-0.018722279,-9.861338
276.12473959,-0.0113908695,-0.0025873529,-0.00032055378,-0.5987143,-0.047462516,-9.873313
276.12897484,-0.014586663,-0.0036526173,-0.0013858192,-0.6154794,-0.05943761,-9.854153
276.13474008,-0.009260341,-0.0036526173,-0.0035163462,-0.62984955,-0.054647572,-9.803858
276.13889372,-0.010325605,-0.0036526173,-0.0035163462,-0.6370346,-0.035487417,-9.758352
276.14474106,-0.012456134,-0.004717882,-0.0045816116,-0.6274545,-0.047462516,-9.779908
276.14892968,-0.012456134,-0.004717882,-0.0035163462,-0.60829437,-0.037882436,-9.861338
276.15474193,-0.013521398,-0.004717882,-0.0035163462,-0.60350436,-0.006747181,-9.861338
276.15899837,-0.010325605,-0.004717882,-0.0045816116,-0.60350436,-0.045067493,-9.868523
276.16462032,-0.012456134,-0.004717882,-0.0035163462,-0.6202694,-0.047462516,-9.823017
276.16888148,-0.013521398,-0.004717882,-0.0024510846,-0.59631926,-0.052252553,-9.7918825
276.17474186,-0.010325605,-0.007913675,-0.0035163462,-0.60829437,-0.037882436,-9.7990675
276.17920049,-0.010325605,-0.00897894,-0.0045816116,-0.62266445,-0.040277455,-9.825413
276.18463747,-0.012456134,-0.0111094685,-0.0035163462,-0.62984955,-0.01153722,-9.837388
276.18888048,-0.0113908695,-0.00897894,-0.0045816116,-0.5987143,0.0028328972,-9.842177
276.19474347,-0.0113908695,-0.00897894,-0.0035163462,-0.59631926,-0.052252553,-9.866128
276.1992098,-0.009260341,-0.00897894,-0.0035163462,-0.6106894,-0.05943761,-9.813437
276.20473932,-0.009260341,-0.010044204,-0.0024510846,-0.5939243,-0.06422765,-9.770328
276.20883736,-0.010325605,-0.0111094685,-0.0035163462,-0.63463956,-0.042672474,-9.753563
276.21474212,-0.0113908695,-0.0111094685,-0.005646877,-0.60829437,-0.042672474,-9.794278
276.21898112,-0.012456134,-0.012174733,-0.005646877,-0.60829437,-0.047462516,-9.861338
276.2247406,-0.0113908695,-0.012174733,-0.0067121387,-0.57476413,-0.035487417,-9.875708
276.22909738,-0.0113908695,-0.0111094685,-0.0067121387,-0.61308444,-0.052252553,-9.839783
276.23474179,-0.0113908695,-0.0111094685,-0.0077774078,-0.61308444,-0.08578283,-9.7990675
276.23922836,-0.013521398,-0.0111094685,-0.0067121387,-0.6058994,-0.05943761,-9.779908
276.24470632,-0.013521398,-0.013239997,-0.0077774078,-0.6202694,-0.033092394,-9.779908
276.24887807,-0.015651926,-0.014305262,-0.0045816116,-0.6250595,-0.033092394,-9.813437
276.25474044,-0.013521398,-0.014305262,-0.005646877,-0.6058994,-0.028302357,-9.832598
276.25923676,-0.013521398,-0.013239997,-0.005646877,-0.6058994,-0.06422765,-9.849362
276.26474129,-0.012456134,-0.014305262,-0.0045816116,-0.62984955,-0.047462516,-9.846968
276.26888192,-0.0113908695,-0.014305262,-0.005646877,-0.6537997,-0.054647572,-9.8062525
276.27474166,-0.014586663,-0.014305262,-0.0024510846,-0.7017001,-0.05704259,-9.775118
276.27922141,-0.014586663,-0.014305262,-0.005646877,-0.6585898,-0.028302357,-9.789488
276.28461512,-0.014586663,-0.014305262,-0.0024510846,-0.6322445,-0.018722279,-9.837388
276.28892412,-0.015651926,-0.015370526,-0.0035163462,-0.6106894,-0.023512317,-9.849362
276.29474064,-0.013521398,-0.015370526,-0.0024510846,-0.6154794,-0.08578283,-9.866128
276.29884548,-0.013521398,-0.014305262,-0.005646877,-0.67774993,-0.08578283,-9.818228
276.30474118,-0.015651926,-0.015370526,-0.0067121387,-0.6657748,-0.06901769,-9.751167
276.30921097,-0.014586663,-0.014305262,-0.0077774078,-0.6993051,-0.047462516,-9.782303
276.3146987,-0.014586663,-0.01643579,-0.0045816116,-0.65619475,-0.061832633,-9.823017
276.31879103,-0.015651926,-0.017501056,-0.005646877,-0.67774993,-0.037882436,-9.846968
276.32474322,-0.013521398,-0.01643579,-0.005646877,-0.63463956,-0.042672474,-9.858943
276.32902109,-0.0113908695,-0.015370526,-0.005646877,-0.67056483,-0.05943761,-9.861338
276.33473882,-0.017782457,-0.015370526,-0.0067121387,-0.6537997,-0.09536291,-9.825413
276.33903436,-0.015651926,-0.017501056,-0.0045816116,-0.68253994,-0.083387814,-9.784698
276.34469778,-0.017782457,-0.01643579,-0.0024510846,-0.7136752,-0.01153722,-9.772722
276.34887469,-0.013521398,-0.017501056,-0.0013858192,-0.7304404,-0.023512317,-9.8062525
276.35474076,-0.012456134,-0.017501056,-0.0013858192,-0.70649016,-0.052252553,-9.854153
276.35885227,-0.013521398,-0.01643579,-0.0013858192,-0.6657748,-0.025907338,-9.875708
276.36474293,-0.015651926,-0.015370526,-0.00032055378,-0.6993051,-0.037882436,-9.844573
276.36925978,-0.013521398,-0.015370526,0.0018099733,-0.7352304,-0.07620275,-9.779908
276.37474032,-0.015651926,-0.014305262,0.0007447116,-0.74002045,-0.06901769,-9.777513
276.37890684,-0.012456134,-0.015370526,-0.00032055378,-0.7232553,-0.033092394,-9.7918825
276.38474511,-0.013521398,-0.015370526,-0.0013858192,-0.72086024,-0.01632726,-9.830202
276.38900619,-0.017782457,-0.017501056,0.0007447116,-0.70649016,-0.042672474,-9.861338
276.39474104,-0.01884772,-0.014305262,-0.0013858192,-0.7256503,-0.05943761,-9.842177
276.39888286,-0.01884772,-0.013239997,-0.0024510846,-0.71607023,-0.047462516,-9.820622
276.40458076,-0.017782457,-0.014305262,-0.0024510846,-0.71607023,-0.037882436,-9.784698
276.40884217,-0.015651926,-0.014305262,-0.0024510846,-0.73283535,-0.054647572,-9.772722
276.41474064,-0.017782457,-0.012174733,-0.00032055378,-0.7496005,-0.018722279,-9.770328
276.41918464,-0.017782457,-0.013239997,-0.0013858192,-0.7376254,0.0028328972,-9.832598
276.42467968,-0.016717192,-0.013239997,-0.0013858192,-0.7256503,-0.01393224,-9.856547
276.42878968,-0.016717192,-0.0111094685,0.0007447116,-0.7304404,-0.045067493,-9.870918
276.43474191,-0.015651926,-0.010044204,0.0018099733,-0.74002045,-0.033092394,-9.823017
276.43908555,-0.013521398,-0.010044204,0.0028752387,-0.7639706,-0.033092394,-9.741588
276.44474075,-0.017782457,-0.010044204,0.0018099733,-0.7591806,-0.042672474,-9.767933
276.44896342,-0.016717192,-0.0111094685,0.0028752387,-0.7472055,-0.018722279,-9.782303
276.45474028,-0.014586663,-0.010044204,0.0028752387,-0.72086024,-0.028302357,-9.844573
276.45888386,-0.016717192,-0.010044204,0.0028752387,-0.7376254,-0.047462516,-9.842177
276.46459,-0.016717192,-0.010044204,0.0050057694,-0.7639706,-0.052252553,-9.825413
276.46891619,-0.014586663,-0.00897894,0.0028752387,-0.7735507,-0.049857534,-9.7990675
276.47474156,-0.014586663,-0.0057831462,0.0007447116,-0.7687607,-0.049857534,-9.794278
276.47919251,-0.01884772,-0.0068484107,0.0028752387,-0.7519955,-0.047462516,-9.789488
276.48474074,-0.017782457,-0.007913675,0.0028752387,-0.7687607,-0.037882436,-9.813437
276.48908377,-0.016717192,-0.007913675,0.0028752387,-0.7304404,-0.006747181,-9.830202
276.49464475,-0.016717192,-0.0057831462,0.003940504,-0.7376254,-0.028302357,-9.856547
276.49897659,-0.017782457,-0.0057831462,0.0028752387,-0.74481046,-0.061832633,-9.837388
276.5047401,-0.015651926,-0.0068484107,0.003940504,-0.75439054,-0.023512317,-9.784698
276.50893266,-0.016717192,-0.0036526173,0.0028752387,-0.7735507,-0.006747181,-9.748773
276.51474102,-0.015651926,-0.004717882,0.003940504,-0.7687607,-0.033092394,-9.784698
276.51902701,-0.01884772,-0.0025873529,0.0028752387,-0.75439054,-0.021117298,-9.846968
276.52474251,-0.016717192,-0.004717882,0.006071031,-0.7136752,-0.01153722,-9.880498
276.52902639,-0.017782457,-0.0036526173,0.006071031,-0.7376254,0.0028328972,-9.851758
276.53469468,-0.015651926,-0.0025873529,0.0071362965,-0.7496005,-0.05943761,-9.832598
276.53883226,-0.016717192,-0.00045682397,0.0050057694,-0.7567856,-0.07141271,-9.784698
276.54474836,-0.01884772,-0.00045682397,0.0071362965,-0.7304404,-0.021117298,-9.770328
276.54918321,-0.013521398,-0.0015220884,0.006071031,-0.7519955,-0.021117298,-9.789488
276.55474992,-0.014586663,-0.0025873529,0.006071031,-0.7567856,-0.042672474,-9.834992
276.55902523,-0.01884772,-0.00045682397,0.006071031,-0.7304404,-0.01632726,-9.854153
276.56469771,-0.017782457,0.001673705,0.0050057694,-0.71128017,-0.028302357,-9.866128
276.56885903,-0.016717192,-0.0015220884,0.008201562,-0.71846527,-0.08578283,-9.842177
276.57474,-0.017782457,-0.0015220884,0.0071362965,-0.74481046,-0.061832633,-9.777513
276.57905864,-0.014586663,0.0006084405,0.0050057694,-0.7615756,-0.023512317,-9.775118
276.58467816,-0.015651926,0.0006084405,0.003940504,-0.7304404,-0.021117298,-9.7990675
276.58888704,-0.019912984,-0.00045682397,0.008201562,-0.6753549,-0.045067493,-9.866128
276.59474275,-0.01884772,-0.0015220884,0.006071031,-0.68733,-0.028302357,-9.851758
276.59908937,-0.016717192,0.001673705,0.0071362965,-0.70649016,-0.040277455,-9.832598
276.60463885,-0.019912984,0.0027389694,0.008201562,-0.72804534,-0.07141271,-9.787093
276.60883323,-0.02097825,0.001673705,0.008201562,-0.71607023,-0.042672474,-9.767933
276.61474042,-0.017782457,0.001673705,0.0071362965,-0.72086024,-0.01632726,-9.789488
276.61901056,-0.014586663,0.0006084405,0.006071031,-0.71846527,-0.01632726,-9.815832
276.62467319,-0.015651926,0.001673705,0.006071031,-0.69212,-0.006747181,-9.830202
276.62888,-0.017782457,0.0027389694,0.0071362965,-0.69212,-0.018722279,-9.846968
276.6347417,-0.017782457,0.0027389694,0.0071362965,-0.68972504,-0.054647572,-9.846968
276.63905607,-0.017782457,0.001673705,0.009266827,-0.69212,-0.047462516,-9.801463
276.64464051,-0.016717192,0.0006084405,0.0071362965,-0.6969101,-0.042672474,-9.767933
276.64884725,-0.015651926,0.001673705,0.006071031,-0.7304404,-0.033092394,-9.770328
276.65473959,-0.01884772,0.001673705,0.008201562,-0.68253994,-0.028302357,-9.813437
276.6589942,-0.019912984,0.0038042339,0.0071362965,-0.67295986,-0.018722279,-9.856547
276.66469484,-0.015651926,0.001673705,0.006071031,-0.65619475,-0.052252553,-9.837388
276.66885653,-0.017782457,0.0027389694,0.008201562,-0.6657748,-0.05704259,-9.813437
276.67474121,-0.015651926,0.0006084405,0.006071031,-0.67295986,-0.045067493,-9.775118
276.67911787,-0.016717192,0.001673705,0.008201562,-0.68733,-0.037882436,-9.7918825
276.68474,-0.019912984,0.001673705,0.008201562,-0.6753549,-0.025907338,-9.803858
276.68886094,-0.017782457,0.0006084405,0.009266827,-0.6394296,-0.021117298,-9.856547
276.69474175,-0.014586663,0.0006084405,0.0071362965,-0.6585898,-0.018722279,-9.846968
276.69917652,-0.017782457,0.0006084405,0.008201562,-0.6394296,-0.05943761,-9.832598
276.70474087,-0.01884772,0.001673705,0.008201562,-0.67056483,-0.05704259,-9.8062525
276.70902102,-0.015651926,-0.00045682397,0.008201562,-0.62984955,-0.042672474,-9.779908
276.71474166,-0.015651926,0.0006084405,0.0071362965,-0.66816986,-0.021117298,-9.767933
276.71905884,-0.016717192,-0.00045682397,0.0071362965,-0.6466147,-0.021117298,-9.813437
276.72470355,-0.01884772,0.0006084405,0.009266827,-0.6466147,-0.001957142,-9.868523
276.72883357,-0.017782457,-0.00045682397,0.0071362965,-0.6394296,-0.0043521617,-9.875708
276.73474131,-0.017782457,-0.00045682397,0.0071362965,-0.6370346,-0.023512317,-9.846968
276.73909319,-0.016717192,0.0006084405,0.008201562,-0.6537997,-0.045067493,-9.796673
276.74469274,-0.01884772,0.0006084405,0.008201562,-0.6466147,-0.023512317,-9.765537
276.74883685,-0.01884772,0.001673705,0.009266827,-0.6537997,-0.018722279,-9.787093
276.75474251,-0.015651926,-0.0015220884,0.0071362965,-0.63463956,-0.028302357,-9.839783
276.7593463,-0.016717192,-0.0015220884,0.008201562,-0.6154794,-0.006747181,-9.851758
276.76447793,-0.017782457,-0.00045682397,0.008201562,-0.6250595,-0.018722279,-9.851758
276.76903564,-0.014586663,-0.0015220884,0.0071362965,-0.6418246,-0.049857534,-9.849362
276.77474032,-0.017782457,-0.0025873529,0.008201562,-0.64421964,-0.028302357,-9.7990675
276.77903883,-0.017782457,-0.0025873529,0.008201562,-0.64421964,-0.028302357,-9.7990675
276.78474134,-0.017782457,-0.0036526173,0.0071362965,-0.6322445,-0.023512317,-9.832598
276.78886452,-0.017782457,-0.0036526173,0.0071362965,-0.6322445,-0.023512317,-9.832598
276.79474176,-0.014586663,-0.0025873529,0.0071362965,-0.6394296,-0.028302357,-9.851758
276.79920641,-0.014586663,-0.0025873529,0.0071362965,-0.6394296,-0.028302357,-9.851758
276.80474048,-0.010325605,-0.0036526173,0.006071031,-0.6490097,-0.045067493,-9.748773
276.80897548,-0.010325605,-0.0036526173,0.006071031,-0.6490097,-0.045067493,-9.748773
276.8147432,-0.015651926,-0.004717882,0.009266827,-0.6490097,-0.037882436,-9.813437
276.81903863,-0.015651926,-0.004717882,0.009266827,-0.6490097,-0.037882436,-9.813437
276.8247421,-0.014586663,-0.0057831462,0.008201562,-0.61308444,-0.028302357,-9.851758
276.82900884,-0.014586663,-0.0057831462,0.008201562,-0.61308444,-0.028302357,-9.851758
276.83474182,-0.015651926,-0.0068484107,0.008201562,-0.6394296,-0.07141271,-9.803858
276.83895375,-0.015651926,-0.0068484107,0.008201562,-0.6394296,-0.07141271,-9.803858
276.84474229,-0.015651926,-0.0057831462,0.008201562,-0.6585898,-0.037882436,-9.775118
276.84901087,-0.015651926,-0.0057831462,0.008201562,-0.6585898,-0.037882436,-9.775118
276.85463076,-0.017782457,-0.0068484107,0.009266827,-0.6537997,-0.01632726,-9.837388
276.8588266,-0.017782457,-0.0068484107,0.009266827,-0.6537997,-0.01632726,-9.837388
276.86474206,-0.017782457,-0.0068484107,0.009266827,-0.6514047,-0.045067493,-9.832598
276.86905103,-0.017782457,-0.0068484107,0.009266827,-0.6514047,-0.045067493,-9.832598
276.87474226,-0.016717192,-0.0068484107,0.010332089,-0.68253994,-0.025907338,-9.755958
276.87928153,-0.012456134,-0.00897894,0.008201562,-0.67295986,-0.028302357,-9.7918825
276.8845767,-0.017782457,-0.00897894,0.010332089,-0.68733,-0.037882436,-9.849362
276.88890247,-0.017782457,-0.00897894,0.010332089,-0.68733,-0.037882436,-9.849362
276.89474117,-0.01884772,-0.0068484107,0.010332089,-0.6490097,-0.01393224,-9.842177
276.89894094,-0.01884772,-0.0068484107,0.010332089,-0.6490097,-0.01393224,-9.842177
276.90474719,-0.015651926,-0.0068484107,0.011397354,-0.66816986,-0.066622674,-9.784698
276.90926685,-0.013521398,-0.00897894,0.009266827,-0.6969101,-0.037882436,-9.765537
276.91477032,-0.015651926,-0.007913675,0.009266827,-0.6753549,-0.01153722,-9.7918825
276.91881277,-0.015651926,-0.007913675,0.009266827,-0.6753549,-0.01153722,-9.7918825
276.92474494,-0.01884772,-0.007913675,0.011397354,-0.68014497,-0.01153722,-9.861338
276.92901468,-0.017782457,-0.0068484107,0.011397354,-0.68733,-0.035487417,-9.870918
276.93474258,-0.015651926,-0.0057831462,0.010332089,-0.68972504,-0.049857534,-9.837388
276.93897309,-0.017782457,-0.007913675,0.011397354,-0.66816986,-0.042672474,-9.775118
276.9447408,-0.015651926,-0.007913675,0.010332089,-0.6969101,-0.033092394,-9.760748
276.94902116,-0.014586663,-0.0111094685,0.009266827,-0.71128017,-0.0091422,-9.7990675
276.95474064,-0.016717192,-0.007913675,0.01246262,-0.69212,-0.0091422,-9.856547
276.95886064,-0.015651926,-0.0068484107,0.011397354,-0.69212,0.005227917,-9.863733
276.96474321,-0.017782457,-0.0068484107,0.010332089,-0.69212,-0.047462516,-9.856547
276.96926195,-0.013521398,-0.00897894,0.010332089,-0.7136752,-0.030697376,-9.813437
276.97474028,-0.014586663,-0.007913675,0.011397354,-0.71607023,-0.0043521617,-9.794278
276.9790864,-0.015651926,-0.007913675,0.013527885,-0.74002045,-0.001957142,-9.789488
276.98470096,-0.014586663,-0.0068484107,0.011397354,-0.71128017,-0.035487417,-9.842177
276.98880216,-0.016717192,-0.0068484107,0.011397354,-0.6993051,-0.006747181,-9.832598
276.99474133,-0.01884772,-0.0057831462,0.01246262,-0.70649016,-0.001957142,-9.837388
276.99903349,-0.013521398,-0.0057831462,0.01246262,-0.72086024,-0.040277455,-9.854153
277.00454601,-0.014586663,-0.0057831462,0.011397354,-0.74002045,-0.042672474,-9.789488
277.00892691,-0.014586663,-0.0036526173,0.01246262,-0.7304404,-0.028302357,-9.770328
277.01475048,-0.014586663,-0.0057831462,0.01246262,-0.7496005,-0.01153722,-9.772722
277.01911771,-0.014586663,-0.0068484107,0.01246262,-0.7304404,-0.028302357,-9.856547
277.02474175,-0.013521398,-0.0057831462,0.011397354,-0.71607023,-0.040277455,-9.856547
277.02907146,-0.015651926,-0.004717882,0.013527885,-0.6969101,-0.033092394,-9.851758
277.03474186,-0.014586663,-0.0036526173,0.01246262,-0.7232553,-0.052252553,-9.808648
277.03902016,-0.014586663,-0.0036526173,0.01246262,-0.7424154,-0.07141271,-9.770328
277.04469142,-0.016717192,-0.0025873529,0.013527885,-0.7639706,-0.047462516,-9.777513
277.04883432,-0.016717192,-0.0015220884,0.011397354,-0.7496005,-0.0091422,-9.787093
277.05474109,-0.016717192,-0.0025873529,0.01246262,-0.7017001,-0.021117298,-9.842177
277.05895219,-0.015651926,-0.0025873529,0.015658412,-0.72086024,-0.054647572,-9.849362
277.0645669,-0.013521398,-0.0025873529,0.014593147,-0.7256503,-0.042672474,-9.846968
277.06892692,-0.015651926,-0.0015220884,0.015658412,-0.7519955,-0.047462516,-9.823017
277.07474229,-0.017782457,0.0006084405,0.013527885,-0.7639706,-0.05704259,-9.775118
277.0792621,-0.014586663,-0.0015220884,0.014593147,-0.75439054,-0.045067493,-9.775118
277.08474086,-0.013521398,-0.0025873529,0.013527885,-0.7735507,-0.01153722,-9.794278
277.08907713,-0.016717192,-0.0015220884,0.014593147,-0.73283535,-0.01153722,-9.851758
277.09469783,-0.014586663,0.0006084405,0.014593147,-0.7352304,-0.033092394,-9.866128
277.0988284,-0.016717192,0.0006084405,0.015658412,-0.72086024,-0.052252553,-9.842177
277.10474311,-0.016717192,0.0006084405,0.016723678,-0.74002045,-0.05704259,-9.779908
277.10885534,-0.015651926,0.0006084405,0.015658412,-0.7687607,-0.028302357,-9.753563
277.11474231,-0.016717192,0.0006084405,0.016723678,-0.7567856,-0.042672474,-9.789488
277.11905996,-0.017782457,0.001673705,0.015658412,-0.74002045,-0.040277455,-9.844573
277.12474436,-0.016717192,0.001673705,0.015658412,-0.7017001,-0.023512317,-9.856547
277.12903282,-0.017782457,0.0027389694,0.016723678,-0.71607023,-0.033092394,-9.854153
277.13474205,-0.016717192,0.001673705,0.015658412,-0.7017001,-0.066622674,-9.837388
277.1389934,-0.014586663,0.0027389694,0.013527885,-0.7256503,-0.07141271,-9.7918825
277.14474058,-0.015651926,0.0027389694,0.013527885,-0.7017001,-0.037882436,-9.782303
277.14892613,-0.015651926,0.001673705,0.013527885,-0.71128017,-0.042672474,-9.787093
277.1547422,-0.017782457,0.001673705,0.015658412,-0.70649016,-0.047462516,-9.830202
277.15917576,-0.016717192,0.0027389694,0.01246262,-0.6969101,-0.0043521617,-9.856547
277.1647424,-0.016717192,0.0038042339,0.014593147,-0.68972504,-0.018722279,-9.875708
277.16881813,-0.017782457,0.0059347637,0.014593147,-0.70649016,-0.047462516,-9.832598
277.17474183,-0.016717192,0.0038042339,0.014593147,-0.6969101,-0.033092394,-9.777513
277.17935171,-0.015651926,0.0027389694,0.015658412,-0.7352304,-0.028302357,-9.787093
277.18460718,-0.016717192,0.0038042339,0.015658412,-0.71607023,-0.0043521617,-9.820622
277.18892001,-0.016717192,0.0048694983,0.017788943,-0.69451505,-0.006747181,-9.861338
277.19474249,-0.015651926,0.0038042339,0.015658412,-0.69212,0.0028328972,-9.846968
277.19880507,-0.015651926,0.0048694983,0.015658412,-0.69212,-0.01632726,-9.832598
277.20474227,-0.012456134,0.0048694983,0.015658412,-0.7352304,-0.023512317,-9.789488
277.20920782,-0.013521398,0.0059347637,0.015658412,-0.6993051,-0.023512317,-9.779908
277.21440643,-0.016717192,0.0048694983,0.015658412,-0.7040951,-0.01153722,-9.789488
277.21891464,-0.015651926,0.0048694983,0.014593147,-0.6969101,-0.0043521617,-9.820622
277.22474201,-0.016717192,0.0048694983,0.014593147,-0.6753549,0.0028328972,-9.854153
277.22907639,-0.016717192,0.0059347637,0.013527885,-0.6490097,-0.0043521617,-9.866128
277.23474191,-0.014586663,0.0048694983,0.013527885,-0.66816986,-0.023512317,-9.846968
277.23932218,-0.014586663,0.0048694983,0.011397354,-0.68972504,-0.035487417,-9.782303
277.24458961,-0.016717192,0.0059347637,0.01246262,-0.67774993,-0.0091422,-9.751167
277.24889556,-0.014586663,0.0038042339,0.011397354,-0.67774993,0.0028328972,-9.765537
277.2547411,-0.01884772,0.0027389694,0.01246262,-0.6466147,0.0028328972,-9.842177
277.25886996,-0.013521398,0.0038042339,0.011397354,-0.6514047,0.0076229367,-9.873313
277.26474436,-0.016717192,0.0038042339,0.013527885,-0.64421964,0.010017957,-9.834992
277.26914104,-0.013521398,0.0038042339,0.014593147,-0.6657748,-0.028302357,-9.818228
277.27474325,-0.013521398,0.0038042339,0.013527885,-0.66816986,-0.033092394,-9.784698
277.27885237,-0.013521398,0.0027389694,0.015658412,-0.67774993,-0.01393224,-9.7918825
277.28474241,-0.012456134,0.0027389694,0.011397354,-0.68253994,0.00043787766,-9.8062525
277.28918123,-0.015651926,0.001673705,0.014593147,-0.6514047,-0.0091422,-9.846968
277.29454598,-0.017782457,0.0027389694,0.015658412,-0.64421964,0.0028328972,-9.844573
277.29897414,-0.013521398,0.0027389694,0.013527885,-0.6202694,-0.01393224,-9.854153
277.30458028,-0.0113908695,0.0027389694,0.013527885,-0.6537997,-0.040277455,-9.811043
277.30909169,-0.015651926,0.0027389694,0.01246262,-0.64421964,-0.040277455,-9.758352
277.31474238,-0.014586663,0.0038042339,0.011397354,-0.66098475,-0.01153722,-9.765537
277.31894692,-0.016717192,0.0027389694,0.01246262,-0.6537997,-0.001957142,-9.803858
277.32474064,-0.010325605,0.0038042339,0.010332089,-0.6274545,-0.001957142,-9.866128
277.32892235,-0.015651926,0.0038042339,0.01246262,-0.61308444,-0.01153722,-9.878103
277.33474126,-0.015651926,0.0038042339,0.011397354,-0.6322445,-0.001957142,-9.837388
277.33912067,-0.014586663,0.0027389694,0.011397354,-0.6394296,-0.018722279,-9.794278
277.34466761,-0.013521398,0.0027389694,0.011397354,-0.64421964,-0.033092394,-9.775118
277.34893347,-0.016717192,0.0006084405,0.011397354,-0.62984955,-0.023512317,-9.789488
277.35474205,-0.013521398,-0.0015220884,0.01246262,-0.6322445,-0.001957142,-9.813437
277.35904452,-0.015651926,-0.0015220884,0.013527885,-0.6250595,0.0028328972,-9.846968
277.36461865,-0.013521398,-0.00045682397,0.01246262,-0.62266445,-0.023512317,-9.856547
277.36885528,-0.013521398,-0.00045682397,0.011397354,-0.6394296,-0.080992796,-9.856547
277.37474484,-0.015651926,-0.0015220884,0.01246262,-0.6154794,-0.061832633,-9.815832
277.37911154,-0.012456134,-0.0025873529,0.011397354,-0.64421964,-0.028302357,-9.784698
277.38469121,-0.0113908695,-0.0015220884,0.01246262,-0.64421964,-0.042672474,-9.789488
277.38882542,-0.012456134,-0.0015220884,0.010332089,-0.63463956,-0.045067493,-9.858943
277.39474247,-0.015651926,-0.0015220884,0.013527885,-0.59631926,-0.028302357,-9.870918
277.39907872,-0.015651926,-0.0025873529,0.011397354,-0.6154794,-0.030697376,-9.846968
277.40462825,-0.014586663,-0.0036526173,0.011397354,-0.6250595,-0.07620275,-9.830202
277.40883828,-0.013521398,-0.0025873529,0.010332089,-0.6537997,-0.07620275,-9.770328
277.41474279,-0.0113908695,-0.0036526173,0.010332089,-0.6514047,-0.030697376,-9.779908
277.41922548,-0.015651926,-0.004717882,0.011397354,-0.6490097,-0.006747181,-9.813437
277.42458996,-0.010325605,-0.0057831462,0.01246262,-0.64421964,-0.023512317,-9.863733
277.42889786,-0.015651926,-0.0036526173,0.013527885,-0.61787444,-0.01153722,-9.851758
277.43474299,-0.014586663,-0.0036526173,0.014593147,-0.6418246,-0.01393224,-9.842177
277.43893604,-0.0113908695,-0.0036526173,0.01246262,-0.6537997,-0.05943761,-9.818228
277.44474126,-0.0113908695,-0.004717882,0.013527885,-0.64421964,-0.05704259,-9.763143
277.4491242,-0.013521398,-0.004717882,0.013527885,-0.6633798,-0.05704259,-9.751167
277.45474093,-0.012456134,-0.0068484107,0.015658412,-0.6490097,-0.0091422,-9.7990675
277.45903446,-0.0113908695,-0.0057831462,0.013527885,-0.6490097,-0.030697376,-9.851758
277.46465597,-0.013521398,-0.0057831462,0.013527885,-0.6250595,-0.08578283,-9.875708
277.46890648,-0.013521398,-0.0068484107,0.01246262,-0.6322445,-0.07620275,-9.844573
277.47474187,-0.014586663,-0.0068484107,0.011397354,-0.6490097,-0.052252553,-9.794278
277.47935825,-0.014586663,-0.0068484107,0.009266827,-0.68253994,-0.080992796,-9.770328
277.48458436,-0.015651926,-0.0068484107,0.009266827,-0.67295986,-0.061832633,-9.7990675
277.48892625,-0.015651926,-0.00897894,0.010332089,-0.6466147,-0.01632726,-9.832598
277.49474156,-0.014586663,-0.00897894,0.009266827,-0.61787444,-0.035487417,-9.861338
277.49899452,-0.016717192,-0.007913675,0.013527885,-0.6466147,-0.07620275,-9.832598
277.50467432,-0.01884772,-0.0068484107,0.014593147,-0.6657748,-0.066622674,-9.813437
277.50881152,-0.016717192,-0.0057831462,0.01246262,-0.68014497,-0.037882436,-9.782303
277.5147061,-0.014586663,-0.007913675,0.014593147,-0.68253994,-0.037882436,-9.770328
277.51884709,-0.016717192,-0.00897894,0.013527885,-0.67774993,-0.037882436,-9.779908
277.52474516,-0.016717192,-0.00897894,0.016723678,-0.67774993,-0.001957142,-9.830202
277.52916117,-0.016717192,-0.007913675,0.014593147,-0.6585898,-0.006747181,-9.866128
277.53463224,-0.017782457,-0.0068484107,0.015658412,-0.6537997,-0.047462516,-9.866128
277.53889028,-0.016717192,-0.007913675,0.015658412,-0.66816986,-0.05943761,-9.823017
277.54474191,-0.013521398,-0.010044204,0.013527885,-0.6753549,-0.01153722,-9.760748
277.54906484,-0.013521398,-0.00897894,0.013527885,-0.7040951,-0.006747181,-9.755958
277.55474278,-0.015651926,-0.0068484107,0.013527885,-0.6993051,-0.049857534,-9.813437
277.55898008,-0.016717192,-0.0068484107,0.01246262,-0.66098475,-0.025907338,-9.861338
277.56474949,-0.017782457,-0.00897894,0.01246262,-0.6514047,0.0076229367,-9.849362
277.56882936,-0.01884772,-0.00897894,0.011397354,-0.6585898,-0.028302357,-9.846968
277.57474394,-0.015651926,-0.007913675,0.010332089,-0.684935,-0.05704259,-9.823017
277.57915238,-0.015651926,-0.007913675,0.010332089,-0.68733,-0.023512317,-9.789488
277.58474118,-0.017782457,-0.010044204,0.011397354,-0.684935,-0.001957142,-9.803858
277.58901803,-0.01884772,-0.007913675,0.009266827,-0.7017001,0.0076229367,-9.815832
277.59474283,-0.01884772,-0.010044204,0.011397354,-0.68253994,-0.006747181,-9.861338
277.59909262,-0.015651926,-0.007913675,0.01246262,-0.67056483,-0.001957142,-9.870918
277.60462532,-0.015651926,-0.007913675,0.01246262,-0.68733,-0.001957142,-9.837388
277.6089751,-0.017782457,-0.0068484107,0.014593147,-0.68972504,-0.023512317,-9.794278
277.61474148,-0.014586663,-0.007913675,0.013527885,-0.7256503,-0.037882436,-9.748773
277.61884098,-0.014586663,-0.00897894,0.013527885,-0.71128017,-0.028302357,-9.7918825
277.6247442,-0.015651926,-0.007913675,0.013527885,-0.7136752,0.0076229367,-9.856547
277.62895172,-0.014586663,-0.00897894,0.014593147,-0.67774993,0.005227917,-9.875708
277.63474192,-0.015651926,-0.007913675,0.01246262,-0.69212,-0.037882436,-9.856547
277.63908627,-0.015651926,-0.00897894,0.013527885,-0.70649016,-0.045067493,-9.803858
277.64467516,-0.017782457,-0.0068484107,0.01246262,-0.71607023,-0.042672474,-9.779908
277.6488408,-0.013521398,-0.0057831462,0.011397354,-0.71607023,-0.035487417,-9.765537
277.65474188,-0.016717192,-0.007913675,0.01246262,-0.72086024,-0.028302357,-9.784698
277.65911203,-0.016717192,-0.007913675,0.010332089,-0.70649016,-0.023512317,-9.832598
277.66474823,-0.015651926,-0.007913675,0.009266827,-0.67056483,-0.0043521617,-9.842177
277.66903702,-0.014586663,-0.0068484107,0.009266827,-0.684935,-0.021117298,-9.861338
277.67474299,-0.016717192,-0.0068484107,0.009266827,-0.72804534,-0.042672474,-9.832598
277.6789721,-0.015651926,-0.0057831462,0.009266827,-0.72086024,-0.047462516,-9.7918825
277.68474239,-0.014586663,-0.0057831462,0.009266827,-0.7136752,-0.01153722,-9.772722
277.6888786,-0.014586663,-0.0057831462,0.009266827,-0.69451505,0.021993056,-9.7990675
277.69474826,-0.017782457,-0.0057831462,0.010332089,-0.7040951,-0.01632726,-9.849362
277.69892386,-0.017782457,-0.0057831462,0.010332089,-0.7040951,-0.01632726,-9.849362
277.70474278,-0.014586663,-0.004717882,0.011397354,-0.72086024,-0.006747181,-9.784698
277.70903293,-0.014586663,-0.004717882,0.011397354,-0.72086024,-0.006747181,-9.784698
277.71477608,-0.013521398,-0.0057831462,0.01246262,-0.72804534,-0.042672474,-9.7990675
277.71892214,-0.013521398,-0.0057831462,0.01246262,-0.72804534,-0.042672474,-9.7990675
277.72460771,-0.013521398,-0.0057831462,0.01246262,-0.69212,0.0028328972,-9.830202
277.72885532,-0.013521398,-0.0057831462,0.01246262,-0.69212,0.0028328972,-9.830202
277.73474207,-0.013521398,-0.0025873529,0.010332089,-0.6969101,-0.07141271,-9.844573
277.73900673,-0.013521398,-0.0025873529,0.010332089,-0.6969101,-0.07141271,-9.844573
277.74474064,-0.014586663,-0.0025873529,0.009266827,-0.7232553,-0.01393224,-9.751167
277.74891987,-0.014586663,-0.0025873529,0.009266827,-0.7232553,-0.01393224,-9.751167
277.75474948,-0.013521398,-0.0025873529,0.008201562,-0.6969101,-0.040277455,-9.827807
277.7588713,-0.013521398,-0.0025873529,0.008201562,-0.6969101,-0.040277455,-9.827807
277.7647433,-0.016717192,-0.0036526173,0.008201562,-0.6633798,-0.006747181,-9.858943
277.7689787,-0.016717192,-0.0036526173,0.008201562,-0.6633798,-0.006747181,-9.858943
277.77474308,-0.015651926,-0.0025873529,0.009266827,-0.7088852,-0.06422765,-9.770328
277.77903782,-0.015651926,-0.0025873529,0.009266827,-0.7088852,-0.06422765,-9.770328
277.78461815,-0.016717192,-0.004717882,0.008201562,-0.70649016,0.0076229367,-9.808648
277.78891652,-0.016717192,-0.004717882,0.008201562,-0.70649016,0.0076229367,-9.808648
277.7947542,-0.015651926,-0.0025873529,0.011397354,-0.6969101,-0.025907338,-9.858943
277.79904634,-0.015651926,-0.0025873529,0.011397354,-0.6969101,-0.025907338,-9.858943
277.80474148,-0.015651926,-0.0025873529,0.009266827,-0.66816986,-0.042672474,-9.823017
277.809211,-0.012456134,-0.0036526173,0.008201562,-0.69212,-0.040277455,-9.782303
277.81474282,-0.016717192,-0.0025873529,0.009266827,-0.71607023,-0.037882436,-9.775118
277.81902242,-0.014586663,-0.0057831462,0.009266827,-0.71607023,-0.037882436,-9.775118
277.82474211,-0.012456134,-0.004717882,0.0071362965,-0.66816986,-0.01393224,-9.868523
277.82900856,-0.015651926,-0.0025873529,0.0071362965,-0.65619475,-0.045067493,-9.892473
277.83470362,-0.015651926,-0.0025873529,0.008201562,-0.64421964,-0.047462516,-9.846968
277.83889574,-0.016717192,-0.0036526173,0.0071362965,-0.64421964,-0.047462516,-9.846968
277.84474254,-0.015651926,-0.0025873529,0.0050057694,-0.68972504,-0.040277455,-9.770328
277.84908806,-0.014586663,-0.0036526173,0.0050057694,-0.7017001,-0.001957142,-9.777513
277.85474709,-0.014586663,-0.0025873529,0.006071031,-0.67774993,0.012412976,-9.832598
277.85893044,-0.013521398,-0.0036526173,0.006071031,-0.6537997,-0.001957142,-9.851758
277.86476003,-0.012456134,-0.0036526173,0.0050057694,-0.66098475,-0.0091422,-9.844573
277.8692819,-0.013521398,-0.0025873529,0.006071031,-0.68014497,-0.045067493,-9.844573
277.87474453,-0.013521398,-0.0025873529,0.0071362965,-0.69451505,-0.023512317,-9.7990675
277.87910548,-0.014586663,-0.0025873529,0.0071362965,-0.68253994,-0.018722279,-9.789488
277.88470144,-0.014586663,-0.004717882,0.0050057694,-0.68733,-0.006747181,-9.787093
277.8888376,-0.013521398,-0.0057831462,0.006071031,-0.6394296,-0.01153722,-9.823017
277.89474556,-0.016717192,-0.004717882,0.0071362965,-0.6537997,-0.01632726,-9.856547
277.89903842,-0.013521398,-0.004717882,0.006071031,-0.6633798,-0.037882436,-9.854153
277.90465693,-0.014586663,-0.0025873529,0.0050057694,-0.67295986,-0.054647572,-9.8062525
277.90891964,-0.015651926,-0.0036526173,0.003940504,-0.684935,-0.033092394,-9.755958
277.91474297,-0.012456134,-0.004717882,0.003940504,-0.6585898,-0.040277455,-9.775118
277.91910202,-0.013521398,-0.0036526173,0.0018099733,-0.66816986,-0.025907338,-9.830202
277.924743,-0.014586663,-0.0068484107,0.0028752387,-0.6154794,-0.018722279,-9.875708
277.92889175,-0.015651926,-0.0068484107,0.0050057694,-0.63463956,-0.021117298,-9.849362
277.93474291,-0.015651926,-0.004717882,0.0028752387,-0.64421964,-0.052252553,-9.834992
277.93903392,-0.014586663,-0.004717882,0.0028752387,-0.66816986,-0.049857534,-9.794278
277.94467468,-0.012456134,-0.0057831462,0.0028752387,-0.6657748,-0.021117298,-9.770328
277.94881213,-0.014586663,-0.0057831462,0.006071031,-0.67295986,-0.018722279,-9.782303
277.95474261,-0.014586663,-0.004717882,0.0050057694,-0.6633798,-0.01153722,-9.803858
277.95906574,-0.013521398,-0.0068484107,0.003940504,-0.6370346,-0.018722279,-9.854153
277.9646058,-0.014586663,-0.0057831462,0.0050057694,-0.6250595,-0.021117298,-9.858943
277.96888601,-0.012456134,-0.0057831462,0.0050057694,-0.6322445,-0.028302357,-9.849362
277.97474544,-0.012456134,-0.0068484107,0.003940504,-0.6585898,-0.042672474,-9.796673
277.97916821,-0.013521398,-0.007913675,0.0018099733,-0.67295986,-0.023512317,-9.765537
277.98474314,-0.013521398,-0.0068484107,0.0028752387,-0.6633798,0.00043787766,-9.779908
277.98891564,-0.014586663,-0.0057831462,0.0018099733,-0.6514047,-0.006747181,-9.839783
277.99474268,-0.019912984,-0.0057831462,0.0028752387,-0.61308444,-0.037882436,-9.882893
277.99892191,-0.014586663,-0.007913675,0.0007447116,-0.62984955,-0.01393224,-9.842177
278.00474214,-0.012456134,-0.007913675,0.0018099733,-0.6418246,-0.01153722,-9.815832
278.42874806,-0.013521398,-0.0068484107,-0.00032055378,-0.67774993,-0.0043521617,-9.878103
278.43474349,-0.015651926,-0.0057831462,-0.00032055378,-0.6537997,-0.018722279,-9.880498
278.43894635,-0.015651926,-0.0057831462,-0.0013858192,-0.69451505,-0.035487417,-9.834992
278.44474126,-0.013521398,-0.0057831462,-0.00032055378,-0.67774993,-0.023512317,-9.789488
278.44912777,-0.014586663,-0.0057831462,-0.0013858192,-0.69212,-0.01153722,-9.787093
278.45474335,-0.010325605,-0.0068484107,-0.00032055378,-0.70649016,-0.033092394,-9.803858
278.45903326,-0.016717192,-0.0068484107,0.0018099733,-0.68733,-0.01153722,-9.827807
278.46474479,-0.022043515,-0.0068484107,0.0007447116,-0.67295986,0.024388075,-9.844573
278.4689518,-0.015651926,-0.0068484107,0.0018099733,-0.67774993,-0.001957142,-9.844573
278.47474373,-0.016717192,-0.0057831462,-0.00032055378,-0.67056483,-0.018722279,-9.854153
278.4792442,-0.012456134,-0.0068484107,0.0007447116,-0.67295986,-0.028302357,-9.796673
278.48474303,-0.014586663,-0.0068484107,-0.0013858192,-0.69212,-0.0091422,-9.772722
278.4888823,-0.016717192,-0.007913675,-0.00032055378,-0.69451505,0.021993056,-9.794278
278.49474252,-0.013521398,-0.0068484107,-0.0024510846,-0.68733,0.0028328972,-9.844573
278.49899853,-0.010325605,-0.0057831462,-0.0024510846,-0.64421964,-0.006747181,-9.858943
278.50474272,-0.013521398,-0.0057831462,-0.0024510846,-0.63463956,-0.001957142,-9.837388
278.508965,-0.012456134,-0.007913675,-0.0024510846,-0.6537997,-0.01393224,-9.7918825
278.51474508,-0.014586663,-0.00897894,-0.0024510846,-0.6969101,-0.018722279,-9.760748
278.51888871,-0.013521398,-0.004717882,-0.0035163462,-0.69212,-0.001957142,-9.789488
278.52474395,-0.016717192,-0.0068484107,-0.0024510846,-0.67295986,0.0076229367,-9.832598
278.52918516,-0.013521398,-0.00897894,-0.0013858192,-0.6466147,0.0076229367,-9.849362
278.53469354,-0.0113908695,-0.0068484107,-0.0013858192,-0.6490097,0.0076229367,-9.866128
278.53880548,-0.012456134,-0.0068484107,-0.0035163462,-0.66098475,-0.001957142,-9.846968
278.54474351,-0.008195076,-0.0057831462,-0.0024510846,-0.67295986,-0.025907338,-9.818228
278.54897969,-0.014586663,-0.0057831462,-0.0035163462,-0.6585898,-0.033092394,-9.765537
278.55474716,-0.0113908695,-0.010044204,-0.0024510846,-0.68014497,-0.01632726,-9.746377
278.55904507,-0.013521398,-0.00897894,-0.0013858192,-0.7017001,0.0028328972,-9.8062525
278.5647443,-0.010325605,-0.007913675,-0.0035163462,-0.66816986,0.0028328972,-9.851758
278.56900673,-0.014586663,-0.0057831462,-0.0035163462,-0.6585898,-0.01153722,-9.873313
278.57474306,-0.013521398,-0.0068484107,-0.0045816116,-0.6585898,-0.033092394,-9.844573
278.57895398,-0.014586663,-0.007913675,-0.0045816116,-0.684935,-0.033092394,-9.765537
278.58474337,-0.013521398,-0.007913675,-0.0013858192,-0.7017001,-0.030697376,-9.772722
278.58916267,-0.012456134,-0.0068484107,-0.0035163462,-0.69212,-0.028302357,-9.7918825
278.59474484,-0.013521398,-0.0068484107,-0.005646877,-0.66098475,-0.001957142,-9.827807
278.59888599,-0.013521398,-0.0057831462,-0.0035163462,-0.6322445,-0.01632726,-9.830202
278.60474548,-0.016717192,-0.0068484107,-0.0024510846,-0.66816986,-0.01632726,-9.842177
278.6090611,-0.012456134,-0.0068484107,-0.0035163462,-0.68972504,-0.049857534,-9.820622
278.61474586,-0.009260341,-0.0057831462,-0.005646877,-0.68733,-0.023512317,-9.784698
278.61889114,-0.009260341,-0.0057831462,-0.005646877,-0.68733,-0.023512317,-9.784698
278.62456337,-0.009260341,-0.007913675,-0.0045816116,-0.6657748,0.0028328972,-9.7990675
278.62890984,-0.012456134,-0.007913675,-0.0045816116,-0.67295986,-0.01632726,-9.839783
278.63474191,-0.0113908695,-0.007913675,-0.0045816116,-0.6537997,-0.033092394,-9.870918
278.63908088,-0.0113908695,-0.007913675,-0.0045816116,-0.6537997,-0.033092394,-9.870918
278.64474319,-0.012456134,-0.00897894,-0.0045816116,-0.68972504,-0.05943761,-9.765537
278.64886682,-0.012456134,-0.00897894,-0.0045816116,-0.68972504,-0.05943761,-9.765537
278.65475968,-0.014586663,-0.007913675,-0.0024510846,-0.6969101,-0.01393224,-9.823017
278.65907668,-0.014586663,-0.007913675,-0.0024510846,-0.6969101,-0.01393224,-9.823017
278.66470786,-0.015651926,-0.007913675,-0.0035163462,-0.6322445,-0.028302357,-9.856547
278.66893016,-0.015651926,-0.007913675,-0.0035163462,-0.6322445,-0.028302357,-9.856547
278.67474414,-0.012456134,-0.007913675,-0.0035163462,-0.6993051,-0.07141271,-9.818228
278.67914902,-0.012456134,-0.007913675,-0.0035163462,-0.6993051,-0.07141271,-9.818228
278.68453833,-0.013521398,-0.007913675,-0.005646877,-0.7136752,-0.021117298,-9.782303
278.68892048,-0.013521398,-0.007913675,-0.005646877,-0.7136752,-0.021117298,-9.782303
278.69474254,-0.013521398,-0.007913675,-0.0024510846,-0.70649016,-0.01632726,-9.844573
278.69908975,-0.013521398,-0.007913675,-0.0024510846,-0.70649016,-0.01632726,-9.844573
278.70468245,-0.016717192,-0.0057831462,-0.0013858192,-0.67774993,-0.083387814,-9.846968
278.70884283,-0.016717192,-0.0057831462,-0.0013858192,-0.67774993,-0.083387814,-9.846968
278.71474312,-0.015651926,-0.0068484107,-0.0013858192,-0.72804534,-0.052252553,-9.755958
278.71909464,-0.015651926,-0.0068484107,-0.0013858192,-0.72804534,-0.052252553,-9.755958
278.72469916,-0.009260341,-0.00897894,-0.0024510846,-0.7304404,-0.033092394,-9.844573
278.7289234,-0.009260341,-0.00897894,-0.0024510846,-0.7304404,-0.033092394,-9.844573
278.7347465,-0.013521398,-0.004717882,-0.0013858192,-0.6753549,-0.052252553,-9.846968
278.73905226,-0.015651926,-0.004717882,-0.0013858192,-0.71128017,-0.07620275,-9.823017
278.74474335,-0.0113908695,-0.0068484107,-0.00032055378,-0.68733,-0.052252553,-9.770328
278.74901217,-0.012456134,-0.0057831462,-0.0024510846,-0.7304404,-0.033092394,-9.760748
278.75474385,-0.016717192,-0.0057831462,0.0007447116,-0.70649016,-0.054647572,-9.7990675
278.75893395,-0.01884772,-0.007913675,-0.00032055378,-0.70649016,-0.054647572,-9.7990675
278.76474557,-0.014586663,-0.0057831462,-0.0013858192,-0.68733,-0.035487417,-9.861338
278.76916605,-0.008195076,-0.0068484107,-0.00032055378,-0.70649016,-0.052252553,-9.851758
278.77474296,-0.012456134,-0.0025873529,-0.00032055378,-0.71128017,-0.07380773,-9.827807
278.77912952,-0.013521398,-0.004717882,0.0007447116,-0.7232553,-0.052252553,-9.770328
278.78465786,-0.013521398,-0.004717882,-0.0013858192,-0.70649016,-0.018722279,-9.765537
278.78885804,-0.013521398,-0.0057831462,0.0018099733,-0.69451505,-0.033092394,-9.808648
278.79474484,-0.012456134,-0.0068484107,0.0007447116,-0.70649016,-0.01393224,-9.846968
278.7989908,-0.014586663,-0.0057831462,0.0018099733,-0.67774993,-0.028302357,-9.849362
278.80470844,-0.024174042,-0.0025873529,0.0007447116,-0.7232553,-0.037882436,-9.815832
278.80888211,-0.016717192,-0.0025873529,0.0018099733,-0.70649016,-0.05943761,-9.801463
278.81474447,-0.012456134,-0.004717882,0.0007447116,-0.74002045,-0.023512317,-9.775118
278.81907439,-0.014586663,-0.0036526173,0.0018099733,-0.70649016,-0.035487417,-9.8062525
278.824641,-0.015651926,-0.004717882,0.003940504,-0.71607023,-0.0091422,-9.827807
278.8288326,-0.013521398,-0.0057831462,0.0028752387,-0.67295986,0.019598035,-9.844573
278.83474484,-0.012456134,-0.0036526173,0.003940504,-0.69212,-0.01153722,-9.856547
278.83885432,-0.012456134,-0.0036526173,0.0018099733,-0.71128017,-0.047462516,-9.825413
278.84474288,-0.016717192,-0.0015220884,0.0018099733,-0.7232553,-0.033092394,-9.796673
278.84900064,-0.017782457,-0.0015220884,0.0018099733,-0.72804534,-0.0043521617,-9.746377
278.85474589,-0.015651926,-0.0025873529,0.0050057694,-0.7232553,-0.01153722,-9.789488
278.85899594,-0.014586663,-0.0025873529,0.003940504,-0.72086024,-0.023512317,-9.856547
278.86464279,-0.014586663,-0.0025873529,0.0028752387,-0.67295986,-0.006747181,-9.882893
278.86888023,-0.014586663,-0.0036526173,0.003940504,-0.68253994,-0.006747181,-9.854153
278.87474722,-0.009260341,-0.0036526173,0.0018099733,-0.68253994,-0.045067493,-9.820622
278.87911866,-0.015651926,-0.0025873529,0.0018099733,-0.71128017,-0.042672474,-9.782303
278.88465131,-0.015651926,-0.0015220884,0.003940504,-0.7256503,0.012412976,-9.779908
278.88884165,-0.014586663,-0.00045682397,0.003940504,-0.71128017,0.0028328972,-9.823017
278.8947439,-0.016717192,-0.00045682397,0.0028752387,-0.684935,-0.01153722,-9.846968
278.8988798,-0.013521398,-0.0025873529,0.0028752387,-0.67295986,-0.01393224,-9.849362
278.90474697,-0.01884772,-0.0015220884,0.006071031,-0.69451505,-0.01153722,-9.839783
278.90907849,-0.013521398,-0.0015220884,0.006071031,-0.71128017,-0.033092394,-9.818228
278.9146629,-0.010325605,-0.0015220884,0.0050057694,-0.71128017,-0.035487417,-9.770328
278.91899215,-0.012456134,-0.0015220884,0.006071031,-0.7256503,-0.006747181,-9.753563
278.92474414,-0.009260341,-0.0025873529,0.0050057694,-0.71128017,0.0076229367,-9.813437
278.92907081,-0.009260341,-0.0025873529,0.0071362965,-0.6969101,-0.018722279,-9.854153
278.93474448,-0.0113908695,-0.0015220884,0.0071362965,-0.68972504,-0.033092394,-9.873313
278.93892032,-0.012456134,-0.00045682397,0.0071362965,-0.68253994,-0.037882436,-9.832598
278.94474299,-0.012456134,-0.0025873529,0.006071031,-0.71607023,-0.035487417,-9.765537
278.94887,-0.012456134,-0.00045682397,0.003940504,-0.7040951,-0.05704259,-9.760748
278.9547434,-0.009260341,-0.00045682397,0.0050057694,-0.72804534,-0.040277455,-9.782303
278.95912277,-0.010325605,-0.0015220884,0.003940504,-0.68014497,-0.01153722,-9.823017
278.96468719,-0.012456134,-0.0015220884,0.0071362965,-0.6585898,-0.01393224,-9.851758
278.96883156,-0.013521398,-0.0015220884,0.0050057694,-0.67295986,-0.052252553,-9.842177
278.97474323,-0.015651926,-0.0015220884,0.0071362965,-0.68733,-0.05704259,-9.842177
278.97934632,-0.014586663,-0.0015220884,0.0071362965,-0.6969101,-0.047462516,-9.7918825
278.98447028,-0.012456134,-0.0015220884,0.0071362965,-0.68253994,-0.037882436,-9.775118
278.98907226,-0.010325605,-0.0015220884,0.008201562,-0.684935,-0.037882436,-9.779908
278.99474464,-0.013521398,-0.00045682397,0.0071362965,-0.6633798,-0.028302357,-9.827807
278.99880715,-0.016717192,-0.00045682397,0.0071362965,-0.67295986,-0.001957142,-9.839783
279.00474484,-0.014586663,0.0006084405,0.008201562,-0.68014497,-0.047462516,-9.849362
279.00912223,-0.014586663,0.0006084405,0.010332089,-0.70649016,-0.07620275,-9.808648
279.01467484,-0.016717192,-0.00045682397,0.010332089,-0.67295986,-0.061832633,-9.760748
279.0188358,-0.017782457,-0.00045682397,0.010332089,-0.69451505,-0.025907338,-9.779908
279.02474344,-0.013521398,-0.0015220884,0.009266827,-0.68253994,-0.023512317,-9.813437
279.02905131,-0.016717192,-0.00045682397,0.010332089,-0.68253994,-0.028302357,-9.866128
279.03474468,-0.015651926,-0.00045682397,0.009266827,-0.6585898,-0.037882436,-9.851758
279.03907148,-0.013521398,0.0006084405,0.009266827,-0.66816986,-0.066622674,-9.830202
279.04474637,-0.015651926,-0.00045682397,0.008201562,-0.67774993,-0.066622674,-9.794278
279.04897322,-0.015651926,-0.00045682397,0.008201562,-0.69212,-0.06422765,-9.775118
279.05474338,-0.010325605,-0.00045682397,0.006071031,-0.6969101,-0.028302357,-9.777513
279.0588869,-0.012456134,-0.0015220884,0.009266827,-0.6657748,-0.021117298,-9.813437
279.06474516,-0.013521398,-0.0025873529,0.010332089,-0.6490097,-0.01153722,-9.866128
279.06903201,-0.016717192,-0.0025873529,0.011397354,-0.64421964,-0.030697376,-9.870918
279.07474464,-0.014586663,-0.00045682397,0.009266827,-0.68733,-0.052252553,-9.866128
279.07928581,-0.015651926,-0.00045682397,0.010332089,-0.6633798,-0.061832633,-9.7990675
279.08474326,-0.014586663,-0.0015220884,0.011397354,-0.68014497,-0.033092394,-9.760748
279.0890158,-0.013521398,-0.0036526173,0.011397354,-0.66816986,-0.01632726,-9.784698
279.09474516,-0.015651926,-0.0025873529,0.01246262,-0.68014497,-0.028302357,-9.863733
279.09899065,-0.016717192,-0.0015220884,0.013527885,-0.6657748,-0.025907338,-9.851758
279.1047476,-0.017782457,-0.00045682397,0.01246262,-0.6514047,-0.042672474,-9.842177
279.10899629,-0.014586663,-0.0025873529,0.011397354,-0.66098475,-0.045067493,-9.813437
279.11474393,-0.015651926,-0.0015220884,0.011397354,-0.6753549,-0.049857534,-9.772722
279.118945,-0.015651926,-0.0036526173,0.011397354,-0.7040951,-0.040277455,-9.796673
279.12474337,-0.016717192,-0.0015220884,0.011397354,-0.6969101,-0.001957142,-9.7918825
279.12928211,-0.013521398,-0.0015220884,0.011397354,-0.67295986,-0.0043521617,-9.837388
279.13467721,-0.015651926,-0.0025873529,0.013527885,-0.6370346,-0.037882436,-9.861338
279.13885777,-0.01884772,-0.0015220884,0.013527885,-0.66098475,-0.054647572,-9.861338
279.14474382,-0.016717192,0.0006084405,0.011397354,-0.6753549,-0.042672474,-9.813437
279.14903017,-0.013521398,-0.0025873529,0.011397354,-0.68733,-0.052252553,-9.755958
279.15474635,-0.016717192,-0.0036526173,0.011397354,-0.68253994,-0.05943761,-9.760748
279.15896969,-0.014586663,-0.0025873529,0.013527885,-0.67774993,-0.033092394,-9.808648
279.16474516,-0.013521398,-0.0015220884,0.01246262,-0.6537997,0.0028328972,-9.858943
279.16902478,-0.017782457,-0.0015220884,0.01246262,-0.6514047,-0.028302357,-9.858943
279.17474448,-0.012456134,-0.00045682397,0.01246262,-0.65619475,-0.05943761,-9.842177
279.17893564,-0.008195076,-0.0025873529,0.01246262,-0.6657748,-0.05704259,-9.7990675
279.18474271,-0.014586663,-0.0025873529,0.011397354,-0.67295986,-0.018722279,-9.789488
279.18922188,-0.017782457,-0.0025873529,0.013527885,-0.7017001,-0.01153722,-9.789488
279.19474921,-0.015651926,-0.0025873529,0.01246262,-0.68253994,-0.040277455,-9.832598
279.19897,-0.014586663,-0.0036526173,0.014593147,-0.64421964,0.005227917,-9.830202
279.20474468,-0.017782457,-0.0036526173,0.013527885,-0.6490097,0.0028328972,-9.832598
279.20897632,-0.012456134,-0.0036526173,0.014593147,-0.684935,-0.061832633,-9.837388
279.21463512,-0.015651926,-0.004717882,0.014593147,-0.7088852,-0.066622674,-9.784698
279.21896968,-0.015651926,-0.0036526173,0.015658412,-0.70649016,-0.030697376,-9.760748
279.2245592,-0.013521398,-0.004717882,0.014593147,-0.68733,-0.001957142,-9.789488
279.22892683,-0.013521398,-0.0036526173,0.014593147,-0.67295986,-0.018722279,-9.854153
279.23474421,-0.01884772,-0.0025873529,0.015658412,-0.67295986,-0.033092394,-9.873313
279.23926257,-0.015651926,-0.0025873529,0.014593147,-0.67774993,-0.05704259,-9.851758
279.24474532,-0.013521398,-0.0036526173,0.013527885,-0.6753549,-0.054647572,-9.7990675
279.24906645,-0.014586663,-0.004717882,0.016723678,-0.6537997,-0.07380773,-9.765537
279.25474323,-0.013521398,-0.004717882,0.016723678,-0.71128017,-0.05704259,-9.765537
279.25902147,-0.01884772,-0.0036526173,0.017788943,-0.7017001,-0.023512317,-9.808648
279.26468638,-0.016717192,-0.0036526173,0.014593147,-0.6633798,-0.030697376,-9.851758
279.2688228,-0.017782457,-0.0036526173,0.014593147,-0.62984955,-0.042672474,-9.861338
279.27474348,-0.017782457,-0.0025873529,0.015658412,-0.6585898,-0.05704259,-9.866128
279.27932122,-0.017782457,-0.0025873529,0.014593147,-0.68253994,-0.047462516,-9.827807
279.2844314,-0.016717192,-0.0025873529,0.013527885,-0.70649016,-0.033092394,-9.767933
279.28896576,-0.022043515,-0.0025873529,0.016723678,-0.68733,-0.018722279,-9.775118
279.29474392,-0.014586663,-0.004717882,0.017788943,-0.66816986,-0.01153722,-9.8062525
279.29919244,-0.017782457,-0.0025873529,0.015658412,-0.6633798,-0.01153722,-9.861338
279.30470131,-0.017782457,-0.0025873529,0.018854205,-0.68014497,-0.037882436,-9.870918
279.30883598,-0.014586663,-0.0025873529,0.016723678,-0.6993051,-0.018722279,-9.837388
279.31474532,-0.01884772,-0.0025873529,0.01991947,-0.6993051,-0.045067493,-9.789488
279.31894177,-0.014586663,-0.004717882,0.016723678,-0.7136752,-0.018722279,-9.770328
279.32474516,-0.019912984,-0.004717882,0.018854205,-0.7017001,-0.006747181,-9.803858
279.32886203,-0.01884772,-0.0036526173,0.017788943,-0.70649016,-0.001957142,-9.837388
279.33474444,-0.016717192,-0.0036526173,0.017788943,-0.68014497,-0.025907338,-9.851758
279.3390677,-0.017782457,-0.0036526173,0.018854205,-0.67295986,-0.052252553,-9.839783
279.34466689,-0.015651926,-0.0015220884,0.017788943,-0.68972504,-0.040277455,-9.825413
279.34891528,-0.017782457,-0.0015220884,0.017788943,-0.70649016,-0.07141271,-9.787093
279.35474431,-0.010325605,-0.0025873529,0.016723678,-0.72086024,-0.035487417,-9.765537
279.35899948,-0.015651926,-0.0025873529,0.016723678,-0.6969101,-0.01393224,-9.779908
279.36474516,-0.015651926,-0.004717882,0.017788943,-0.68253994,-0.025907338,-9.832598
279.36911305,-0.015651926,-0.0036526173,0.018854205,-0.67295986,-0.035487417,-9.866128
279.37474399,-0.016717192,-0.0015220884,0.016723678,-0.6969101,-0.047462516,-9.854153
279.37919774,-0.016717192,0.0006084405,0.016723678,-0.684935,-0.05943761,-9.811043
279.38470911,-0.016717192,-0.0025873529,0.015658412,-0.6969101,-0.07141271,-9.775118
279.38875116,-0.016717192,-0.0015220884,0.015658412,-0.69212,-0.040277455,-9.7990675
279.39474432,-0.017782457,-0.0025873529,0.018854205,-0.72086024,-0.01153722,-9.823017
279.39903727,-0.013521398,-0.0036526173,0.01991947,-0.71128017,-0.01393224,-9.846968
279.40474452,-0.016717192,-0.00045682397,0.01991947,-0.67295986,-0.040277455,-9.839783
279.40896399,-0.017782457,-0.0025873529,0.018854205,-0.66098475,-0.049857534,-9.818228
279.41474465,-0.01884772,-0.0025873529,0.020984735,-0.66816986,-0.047462516,-9.7990675
279.41885265,-0.015651926,-0.0025873529,0.01991947,-0.74002045,-0.018722279,-9.770328
279.42474347,-0.01884772,-0.0015220884,0.01991947,-0.74002045,-0.023512317,-9.782303
279.42911748,-0.016717192,-0.0015220884,0.018854205,-0.72086024,0.00043787766,-9.827807
279.4346,-0.016717192,-0.0015220884,0.01991947,-0.66098475,0.010017957,-9.861338
279.43884019,-0.015651926,-0.0015220884,0.018854205,-0.68253994,-0.01632726,-9.870918
279.44474485,-0.015651926,-0.0015220884,0.017788943,-0.7040951,-0.05943761,-9.844573
279.44910516,-0.016717192,0.0006084405,0.017788943,-0.7040951,-0.037882436,-9.775118
279.45470772,-0.015651926,-0.00045682397,0.020984735,-0.7017001,-0.001957142,-9.743982
279.45890448,-0.012456134,-0.0015220884,0.018854205,-0.70649016,-0.018722279,-9.789488
279.46474643,-0.014586663,-0.0015220884,0.017788943,-0.7088852,0.00043787766,-9.854153
279.4689908,-0.01884772,0.0006084405,0.018854205,-0.68733,0.0076229367,-9.870918
279.47474558,-0.014586663,-0.0015220884,0.017788943,-0.67774993,0.005227917,-9.854153
279.47901436,-0.016717192,-0.00045682397,0.01991947,-0.68014497,-0.018722279,-9.832598
279.4847493,-0.014586663,-0.00045682397,0.017788943,-0.7017001,-0.052252553,-9.794278
279.48912711,-0.014586663,-0.00045682397,0.018854205,-0.71128017,-0.018722279,-9.787093
279.49446584,-0.014586663,-0.0015220884,0.01991947,-0.7136752,0.036363173,-9.784698
279.49887635,-0.013521398,-0.00045682397,0.018854205,-0.68253994,0.017203014,-9.830202
279.50474532,-0.010325605,-0.0015220884,0.018854205,-0.6657748,-0.01632726,-9.866128
279.50913921,-0.014586663,-0.00045682397,0.018854205,-0.68733,-0.01393224,-9.851758
279.51469322,-0.0113908695,0.001673705,0.01991947,-0.70649016,0.00043787766,-9.815832
279.51887025,-0.013521398,-0.00045682397,0.020984735,-0.71846527,-0.018722279,-9.777513
279.52474484,-0.013521398,-0.00045682397,0.016723678,-0.7088852,-0.01632726,-9.772722
279.52914709,-0.014586663,-0.0015220884,0.016723678,-0.6753549,0.026783096,-9.832598
279.53474444,-0.012456134,0.001673705,0.017788943,-0.68972504,-0.033092394,-9.851758
279.53878886,-0.012456134,0.001673705,0.017788943,-0.68972504,-0.033092394,-9.851758
279.54474254,-0.0113908695,0.0006084405,0.017788943,-0.69212,-0.01153722,-9.772722
279.54895848,-0.0113908695,0.0006084405,0.017788943,-0.69212,-0.01153722,-9.772722
279.55474413,-0.009260341,-0.00045682397,0.016723678,-0.69451505,-0.042672474,-9.779908
279.55915723,-0.009260341,-0.00045682397,0.016723678,-0.69451505,-0.042672474,-9.779908
279.56467358,-0.012456134,-0.00045682397,0.016723678,-0.6490097,0.017203014,-9.842177
279.56893367,-0.012456134,-0.00045682397,0.016723678,-0.6490097,0.017203014,-9.842177
279.57474385,-0.0113908695,0.0006084405,0.017788943,-0.66816986,-0.06901769,-9.863733
279.57914882,-0.0113908695,0.0006084405,0.017788943,-0.66816986,-0.06901769,-9.863733
279.58451525,-0.013521398,0.0006084405,0.016723678,-0.68733,-0.006747181,-9.751167
279.58897526,-0.013521398,0.0006084405,0.016723678,-0.68733,-0.006747181,-9.751167
279.5947531,-0.0113908695,-0.0015220884,0.016723678,-0.6657748,-0.023512317,-9.856547
279.598985,-0.0113908695,-0.0015220884,0.016723678,-0.6657748,-0.023512317,-9.856547
279.6047037,-0.012456134,-0.00045682397,0.018854205,-0.6969101,-0.025907338,-9.851758
279.60884714,-0.012456134,-0.00045682397,0.018854205,-0.6969101,-0.025907338,-9.851758
279.61474353,-0.02097825,0.0006084405,0.01991947,-0.6993051,-0.023512317,-9.763143
279.61902636,-0.02097825,0.0006084405,0.01991947,-0.6993051,-0.023512317,-9.763143
279.62468711,-0.008195076,-0.0025873529,0.018854205,-0.72086024,-0.028302357,-9.820622
279.62884083,-0.008195076,-0.0025873529,0.018854205,-0.72086024,-0.028302357,-9.820622
279.63474485,-0.014586663,-0.00045682397,0.017788943,-0.6490097,-0.033092394,-9.839783
279.63923327,-0.010325605,-0.00045682397,0.016723678,-0.6490097,-0.040277455,-9.842177
279.64463528,-0.014586663,0.0006084405,0.016723678,-0.64421964,-0.054647572,-9.813437
279.64888701,-0.014586663,0.0006084405,0.016723678,-0.64421964,-0.054647572,-9.813437
279.65474414,-0.013521398,-0.00045682397,0.015658412,-0.6633798,-0.028302357,-9.760748
279.65895259,-0.013521398,-0.00045682397,0.015658412,-0.6633798,-0.028302357,-9.760748
279.66474744,-0.010325605,-0.0015220884,0.015658412,-0.63463956,-0.047462516,-9.866128
279.669084,-0.013521398,-0.00045682397,0.016723678,-0.6537997,-0.066622674,-9.882893
279.67474565,-0.014586663,0.0006084405,0.015658412,-0.6466147,-0.037882436,-9.846968
279.67914587,-0.016717192,0.001673705,0.017788943,-0.65619475,-0.047462516,-9.794278
279.6845864,-0.014586663,-0.0015220884,0.015658412,-0.65619475,-0.05943761,-9.779908
279.68884478,-0.014586663,-0.0015220884,0.015658412,-0.65619475,-0.05943761,-9.779908
279.69474484,-0.014586663,-0.0025873529,0.017788943,-0.67295986,-0.021117298,-9.832598
279.69922564,-0.015651926,-0.0025873529,0.015658412,-0.63463956,-0.023512317,-9.837388
279.70462048,-0.0113908695,-0.0025873529,0.015658412,-0.6514047,-0.080992796,-9.856547
279.70888468,-0.017782457,-0.0025873529,0.014593147,-0.6394296,-0.07859778,-9.839783
279.71474464,-0.015651926,-0.0015220884,0.015658412,-0.67056483,-0.033092394,-9.789488
279.71914631,-0.0113908695,-0.0036526173,0.016723678,-0.7017001,-0.042672474,-9.784698
279.72460252,-0.017782457,-0.0036526173,0.016723678,-0.68972504,-0.045067493,-9.7990675
279.72881347,-0.012456134,-0.0015220884,0.014593147,-0.6418246,-0.030697376,-9.837388
279.73464083,-0.017782457,-0.0036526173,0.015658412,-0.6154794,-0.018722279,-9.870918
279.73884282,-0.012456134,-0.0025873529,0.015658412,-0.6394296,-0.05704259,-9.846968
279.74474653,-0.012456134,-0.0025873529,0.013527885,-0.67295986,-0.07380773,-9.794278
279.74905,-0.016717192,-0.0036526173,0.014593147,-0.66098475,-0.066622674,-9.763143
279.75474764,-0.016717192,-0.004717882,0.015658412,-0.67295986,-0.021117298,-9.775118
279.75893548,-0.0113908695,-0.004717882,0.013527885,-0.6633798,-0.021117298,-9.825413
279.76474947,-0.016717192,-0.0036526173,0.01246262,-0.6466147,-0.040277455,-9.866128
279.76903592,-0.015651926,-0.004717882,0.013527885,-0.63463956,-0.033092394,-9.856547
279.77474366,-0.013521398,-0.0057831462,0.01246262,-0.6418246,-0.035487417,-9.834992
279.77917436,-0.017782457,-0.004717882,0.013527885,-0.6466147,-0.049857534,-9.808648
279.78464032,-0.016717192,-0.004717882,0.013527885,-0.68253994,-0.052252553,-9.770328
279.78883413,-0.016717192,-0.0036526173,0.013527885,-0.68253994,-0.021117298,-9.770328
279.79474682,-0.012456134,-0.0057831462,0.01246262,-0.66098475,0.00043787766,-9.7990675
279.79885681,-0.02097825,-0.0025873529,0.01246262,-0.64421964,-0.025907338,-9.846968
279.80474448,-0.015651926,-0.0057831462,0.013527885,-0.6322445,-0.037882436,-9.858943
279.80912719,-0.016717192,-0.004717882,0.014593147,-0.6537997,-0.01153722,-9.827807
279.81459377,-0.015651926,-0.0057831462,0.01246262,-0.6633798,-0.049857534,-9.765537
279.818953,-0.014586663,-0.0068484107,0.011397354,-0.69451505,-0.047462516,-9.760748
279.82474484,-0.014586663,-0.0057831462,0.01246262,-0.67774993,-0.0043521617,-9.789488
279.82898912,-0.014586663,-0.0068484107,0.011397354,-0.68733,0.029178115,-9.851758
279.83474526,-0.015651926,-0.0068484107,0.01246262,-0.6490097,-0.0091422,-9.856547
279.8388942,-0.013521398,-0.0068484107,0.01246262,-0.6753549,-0.045067493,-9.846968
279.84474516,-0.015651926,-0.0068484107,0.011397354,-0.6537997,-0.021117298,-9.803858
279.8489658,-0.009260341,-0.0068484107,0.01246262,-0.67295986,-0.030697376,-9.777513
279.85474496,-0.0113908695,-0.0057831462,0.009266827,-0.70649016,-0.023512317,-9.772722
279.85895548,-0.015651926,-0.004717882,0.013527885,-0.67295986,-0.001957142,-9.794278
279.86474702,-0.014586663,-0.0068484107,0.010332089,-0.6657748,0.00043787766,-9.834992
279.86895223,-0.013521398,-0.007913675,0.009266827,-0.62984955,-0.025907338,-9.866128
279.87474414,-0.014586663,-0.007913675,0.010332089,-0.6657748,-0.054647572,-9.873313
279.87926653,-0.012456134,-0.007913675,0.009266827,-0.684935,-0.05704259,-9.818228
279.88460544,-0.014586663,-0.0068484107,0.008201562,-0.66816986,-0.037882436,-9.770328
279.88904074,-0.015651926,-0.0068484107,0.008201562,-0.68253994,-0.028302357,-9.772722
279.89477646,-0.016717192,-0.0068484107,0.008201562,-0.6585898,-0.018722279,-9.820622
279.89886024,-0.01884772,-0.00897894,0.010332089,-0.6418246,-0.01632726,-9.863733
279.90474544,-0.02097825,-0.0068484107,0.010332089,-0.6514047,-0.023512317,-9.851758
279.90893858,-0.014586663,-0.007913675,0.009266827,-0.6633798,-0.061832633,-9.839783
279.91475752,-0.016717192,-0.007913675,0.009266827,-0.6633798,-0.061832633,-9.8062525
279.91890496,-0.016717192,-0.007913675,0.008201562,-0.6969101,-0.023512317,-9.787093
279.9247458,-0.019912984,-0.007913675,0.008201562,-0.7017001,-0.021117298,-9.811043
279.92904576,-0.015651926,-0.007913675,0.009266827,-0.6969101,-0.028302357,-9.849362
279.93474713,-0.013521398,-0.010044204,0.008201562,-0.6514047,-0.006747181,-9.851758
279.93889817,-0.017782457,-0.007913675,0.0071362965,-0.63463956,-0.01393224,-9.856547
279.94455626,-0.012456134,-0.0068484107,0.0071362965,-0.684935,-0.049857534,-9.834992
279.94884885,-0.015651926,-0.0068484107,0.0071362965,-0.684935,-0.047462516,-9.770328
279.95474621,-0.016717192,-0.007913675,0.008201562,-0.7136752,-0.01153722,-9.748773
279.9590656,-0.019912984,-0.007913675,0.0071362965,-0.71128017,-0.0043521617,-9.770328
279.96474694,-0.015651926,-0.007913675,0.008201562,-0.66816986,-0.018722279,-9.870918
279.96899734,-0.022043515,-0.0057831462,0.0071362965,-0.67774993,-0.021117298,-9.880498
279.97474414,-0.013521398,-0.0057831462,0.006071031,-0.67295986,-0.018722279,-9.854153
279.97894258,-0.013521398,-0.0057831462,0.0071362965,-0.69212,-0.028302357,-9.808648
279.98474556,-0.0113908695,-0.007913675,0.008201562,-0.68253994,-0.052252553,-9.760748
279.98900701,-0.012456134,-0.007913675,0.0071362965,-0.68733,-0.047462516,-9.787093
279.99474468,-0.013521398,-0.00897894,0.006071031,-0.67774993,-0.01153722,-9.794278
279.99888877,-0.012456134,-0.00897894,0.0050057694,-0.68014497,-0.021117298,-9.823017
280.00462964,-0.014586663,-0.007913675,0.0050057694,-0.6490097,-0.052252553,-9.849362
280.00888892,-0.01884772,-0.0057831462,0.006071031,-0.7017001,-0.05704259,-9.842177
280.01475289,-0.016717192,-0.0057831462,0.0050057694,-0.67774993,-0.054647572,-9.813437
280.01907082,-0.016717192,-0.0068484107,0.006071031,-0.69212,-0.042672474,-9.770328
280.0246813,-0.012456134,-0.00897894,0.003940504,-0.6969101,-0.040277455,-9.755958
280.02890732,-0.016717192,-0.00897894,0.0050057694,-0.68014497,-0.028302357,-9.818228
280.03474652,-0.015651926,-0.00897894,0.006071031,-0.67056483,0.021993056,-9.856547
280.03911116,-0.019912984,-0.0057831462,0.006071031,-0.66816986,-0.033092394,-9.870918
280.04474513,-0.016717192,-0.0068484107,0.0071362965,-0.6993051,-0.05704259,-9.837388
280.0489684,-0.015651926,-0.0068484107,0.0071362965,-0.7017001,-0.040277455,-9.770328
280.05474639,-0.015651926,-0.007913675,0.006071031,-0.71607023,-0.018722279,-9.751167
280.05897548,-0.012456134,-0.0068484107,0.0071362965,-0.70649016,-0.037882436,-9.794278
280.06474576,-0.017782457,-0.007913675,0.008201562,-0.6969101,-0.037882436,-9.834992
280.06906132,-0.012456134,-0.0068484107,0.006071031,-0.68972504,0.0028328972,-9.837388
280.07474523,-0.014586663,-0.0068484107,0.006071031,-0.68733,-0.025907338,-9.851758
280.07901996,-0.014586663,-0.0057831462,0.006071031,-0.68014497,-0.08578283,-9.842177
280.08474516,-0.015651926,-0.004717882,0.0050057694,-0.68253994,-0.07620275,-9.796673
280.08927716,-0.013521398,-0.0068484107,0.003940504,-0.7088852,-0.01153722,-9.760748
280.09470735,-0.013521398,-0.0068484107,0.0050057694,-0.71607023,-0.021117298,-9.796673
280.09883916,-0.017782457,-0.0057831462,0.003940504,-0.67774993,-0.061832633,-9.842177
280.10474838,-0.023108779,-0.0057831462,0.006071031,-0.64421964,-0.030697376,-9.866128
280.10897118,-0.01884772,-0.0057831462,0.003940504,-0.6394296,-0.0091422,-9.851758
280.11468631,-0.008195076,-0.0068484107,0.0028752387,-0.7017001,-0.05704259,-9.808648
280.11880654,-0.009260341,-0.0068484107,0.0028752387,-0.69451505,-0.10254797,-9.787093
280.12474468,-0.012456134,-0.0068484107,0.003940504,-0.6993051,-0.01153722,-9.789488
280.12914176,-0.016717192,-0.007913675,0.0028752387,-0.68014497,0.031573135,-9.832598
280.13474357,-0.013521398,-0.007913675,0.0071362965,-0.684935,-0.01393224,-9.868523
280.13908398,-0.019912984,-0.004717882,0.0050057694,-0.68253994,-0.023512317,-9.858943
280.14463594,-0.02097825,-0.004717882,0.006071031,-0.6490097,-0.006747181,-9.837388
280.14883695,-0.012456134,-0.0068484107,0.006071031,-0.66816986,-0.030697376,-9.789488
280.15474548,-0.017782457,-0.0068484107,0.0071362965,-0.68253994,-0.052252553,-9.779908
280.15905824,-0.016717192,-0.0068484107,0.0071362965,-0.71128017,-0.01153722,-9.775118
280.16469094,-0.015651926,-0.0068484107,0.0071362965,-0.7017001,0.033968154,-9.796673
280.1688217,-0.013521398,-0.0068484107,0.006071031,-0.6585898,-0.006747181,-9.861338
280.1747454,-0.012456134,-0.007913675,0.006071031,-0.66816986,-0.035487417,-9.875708
280.17923984,-0.014586663,-0.0057831462,0.003940504,-0.66816986,-0.047462516,-9.846968
280.18458742,-0.016717192,-0.0068484107,0.003940504,-0.69212,-0.0091422,-9.782303
280.1889011,-0.017782457,-0.0068484107,0.0028752387,-0.69212,-0.01393224,-9.763143
280.1947469,-0.017782457,-0.0057831462,0.003940504,-0.68733,-0.006747181,-9.787093
280.19912012,-0.015651926,-0.0068484107,0.0028752387,-0.6514047,0.012412976,-9.834992
280.20474526,-0.017782457,-0.0068484107,0.003940504,-0.64421964,0.021993056,-9.851758
280.20887484,-0.015651926,-0.0057831462,0.0050057694,-0.6753549,-0.006747181,-9.842177
280.21474516,-0.015651926,-0.004717882,0.003940504,-0.6969101,-0.047462516,-9.818228
280.21892952,-0.013521398,-0.004717882,0.003940504,-0.67295986,-0.021117298,-9.789488
280.22474468,-0.019912984,-0.0057831462,0.0050057694,-0.67774993,-0.0043521617,-9.789488
280.22886144,-0.015651926,-0.007913675,0.0028752387,-0.68253994,0.0028328972,-9.794278
280.23474613,-0.013521398,-0.007913675,0.003940504,-0.68733,-0.0091422,-9.837388
280.23955632,-0.0113908695,-0.0068484107,0.0028752387,-0.66098475,0.00043787766,-9.844573
280.2445513,-0.019912984,-0.0068484107,0.0050057694,-0.6514047,-0.0091422,-9.830202
280.24895453,-0.016717192,-0.007913675,0.003940504,-0.67056483,-0.049857534,-9.7990675
280.25474516,-0.012456134,-0.0068484107,0.003940504,-0.68253994,-0.037882436,-9.746377
280.25903804,-0.010325605,-0.007913675,0.0028752387,-0.6993051,-0.0043521617,-9.758352
280.26468469,-0.0113908695,-0.00897894,0.003940504,-0.66816986,0.00043787766,-9.825413
280.26883624,-0.010325605,-0.0068484107,0.0028752387,-0.6585898,-0.018722279,-9.856547
280.27474618,-0.016717192,-0.007913675,0.0007447116,-0.6537997,-0.033092394,-9.856547
280.279162,-0.01884772,-0.007913675,0.0018099733,-0.66816986,-0.037882436,-9.827807
280.28471112,-0.015651926,-0.007913675,0.0007447116,-0.68253994,-0.028302357,-9.789488
280.28879789,-0.014586663,-0.007913675,0.0018099733,-0.68014497,-0.033092394,-9.775118
280.29474462,-0.013521398,-0.007913675,0.0028752387,-0.6753549,-0.018722279,-9.794278
280.29922133,-0.015651926,-0.00897894,0.0028752387,-0.6633798,0.0028328972,-9.813437
280.30466018,-0.02097825,-0.0068484107,0.0018099733,-0.6514047,-0.01153722,-9.842177
280.30887694,-0.014586663,-0.0068484107,0.0028752387,-0.6537997,-0.037882436,-9.856547
280.31475301,-0.013521398,-0.007913675,0.0028752387,-0.67295986,-0.035487417,-9.834992
280.3190211,-0.016717192,-0.007913675,0.0028752387,-0.66816986,-0.028302357,-9.782303
280.32480737,-0.012456134,-0.007913675,0.0028752387,-0.68253994,-0.028302357,-9.765537
280.32882284,-0.0113908695,-0.010044204,0.0028752387,-0.67056483,-0.023512317,-9.796673
280.33461432,-0.013521398,-0.007913675,0.0018099733,-0.66098475,-0.006747181,-9.858943
280.33885963,-0.006064547,-0.00897894,0.0007447116,-0.6537997,-0.01153722,-9.878103
280.34474403,-0.013521398,-0.007913675,0.0018099733,-0.6585898,-0.033092394,-9.844573
280.34918182,-0.016717192,-0.007913675,0.0028752387,-0.66098475,-0.05704259,-9.818228
280.35474516,-0.016717192,-0.007913675,0.0028752387,-0.67056483,-0.028302357,-9.763143
280.35900374,-0.012456134,-0.010044204,0.0018099733,-0.69212,-0.035487417,-9.779908
280.36474759,-0.012456134,-0.00897894,0.0007447116,-0.68253994,-0.033092394,-9.818228
280.36906369,-0.014586663,-0.010044204,0.0007447116,-0.66098475,-0.021117298,-9.846968
280.3747438,-0.013521398,-0.007913675,0.0028752387,-0.64421964,-0.01393224,-9.866128
280.37898905,-0.017782457,-0.007913675,0.003940504,-0.6585898,-0.061832633,-9.870918
280.38474704,-0.012456134,-0.010044204,-0.00032055378,-0.66816986,-0.066622674,-9.823017
280.38900996,-0.012456134,-0.010044204,0.0007447116,-0.6633798,-0.033092394,-9.779908
280.39459212,-0.013521398,-0.010044204,0.0018099733,-0.6993051,-0.001957142,-9.753563
280.39886,-0.012456134,-0.010044204,0.0018099733,-0.68733,-0.018722279,-9.818228
280.40474575,-0.016717192,-0.010044204,0.0007447116,-0.67295986,-0.037882436,-9.854153
280.40924911,-0.0113908695,-0.010044204,0.0007447116,-0.64421964,-0.037882436,-9.861338
280.41460807,-0.012456134,-0.010044204,-0.00032055378,-0.68253994,-0.021117298,-9.823017
280.41894804,-0.012456134,-0.00897894,-0.00032055378,-0.69451505,-0.05704259,-9.803858
280.42474905,-0.013521398,-0.010044204,0.0007447116,-0.70649016,-0.047462516,-9.784698
280.42899484,-0.009260341,-0.010044204,-0.00032055378,-0.69212,-0.0091422,-9.813437
280.43474616,-0.014586663,-0.010044204,0.0028752387,-0.68733,0.0076229367,-9.839783
280.43894194,-0.012456134,-0.0111094685,0.0007447116,-0.68253994,-0.01632726,-9.837388
280.44474496,-0.013521398,-0.010044204,0.0028752387,-0.68733,-0.037882436,-9.839783
280.44916341,-0.0113908695,-0.012174733,0.0007447116,-0.684935,-0.042672474,-9.815832
280.454745,-0.016717192,-0.00897894,0.0007447116,-0.67774993,-0.047462516,-9.775118
280.4590376,-0.016717192,-0.00897894,0.0007447116,-0.68972504,-0.045067493,-9.760748
280.46474614,-0.015651926,-0.010044204,0.0007447116,-0.67295986,-0.023512317,-9.842177
280.46898277,-0.015651926,-0.010044204,0.0007447116,-0.67295986,-0.023512317,-9.842177
280.47474638,-0.016717192,-0.010044204,0.0018099733,-0.66816986,-0.07620275,-9.873313
280.47929289,-0.016717192,-0.010044204,0.0018099733,-0.66816986,-0.07620275,-9.873313
280.4845708,-0.012456134,-0.010044204,0.0028752387,-0.6993051,-0.05704259,-9.803858
280.48899266,-0.009260341,-0.010044204,0.0018099733,-0.69212,-0.033092394,-9.760748
280.494745,-0.012456134,-0.0111094685,0.0028752387,-0.69212,-0.033092394,-9.827807
280.49886158,-0.012456134,-0.0111094685,0.0028752387,-0.69212,-0.033092394,-9.827807
280.50475618,-0.013521398,-0.0111094685,0.003940504,-0.6657748,-0.001957142,-9.842177
280.50918797,-0.013521398,-0.0111094685,0.003940504,-0.6657748,-0.001957142,-9.842177
280.51474621,-0.013521398,-0.010044204,0.0007447116,-0.72086024,-0.06901769,-9.820622
280.51890405,-0.013521398,-0.010044204,0.0007447116,-0.72086024,-0.06901769,-9.820622
280.52474607,-0.014586663,-0.010044204,0.0050057694,-0.71607023,-0.01153722,-9.770328
280.52894516,-0.014586663,-0.010044204,0.0050057694,-0.71607023,-0.01153722,-9.770328
280.53474432,-0.015651926,-0.00897894,0.003940504,-0.68733,-0.035487417,-9.870918
280.53896781,-0.015651926,-0.00897894,0.003940504,-0.68733,-0.035487417,-9.870918
280.54454512,-0.013521398,-0.00897894,0.003940504,-0.68733,-0.047462516,-9.825413
280.54891149,-0.013521398,-0.00897894,0.003940504,-0.68733,-0.047462516,-9.825413
280.55474576,-0.015651926,-0.007913675,0.0050057694,-0.71846527,-0.061832633,-9.767933
280.55910245,-0.015651926,-0.007913675,0.0050057694,-0.71846527,-0.061832633,-9.767933
280.56474732,-0.017782457,-0.00897894,0.0028752387,-0.67774993,-0.01632726,-9.863733
280.5691056,-0.017782457,-0.00897894,0.0028752387,-0.67774993,-0.01632726,-9.863733
280.574745,-0.016717192,-0.010044204,0.0050057694,-0.6633798,-0.042672474,-9.856547
280.5791026,-0.017782457,-0.007913675,0.003940504,-0.68972504,-0.033092394,-9.823017
280.58469327,-0.013521398,-0.007913675,0.0028752387,-0.68253994,-0.040277455,-9.787093
280.58882448,-0.013521398,-0.007913675,0.0028752387,-0.68253994,-0.040277455,-9.787093
280.5947464,-0.015651926,-0.010044204,0.0028752387,-0.7017001,-0.023512317,-9.789488
280.59925996,-0.01884772,-0.010044204,0.003940504,-0.6969101,0.0028328972,-9.823017
280.60447694,-0.01884772,-0.007913675,0.0050057694,-0.684935,0.00043787766,-9.844573
280.60892603,-0.013521398,-0.0068484107,0.0050057694,-0.684935,0.00043787766,-9.844573
280.61474576,-0.015651926,-0.007913675,0.003940504,-0.69451505,-0.025907338,-9.801463
280.61912351,-0.015651926,-0.00897894,0.0050057694,-0.6993051,-0.01632726,-9.760748
280.62474509,-0.012456134,-0.00897894,0.003940504,-0.7304404,-0.018722279,-9.772722
280.62885516,-0.012456134,-0.007913675,0.003940504,-0.71846527,-0.018722279,-9.827807
280.6347459,-0.014586663,-0.00897894,0.003940504,-0.67774993,0.017203014,-9.856547
280.6391942,-0.012456134,-0.00897894,0.0050057694,-0.6537997,-0.01393224,-9.849362
280.6447458,-0.015651926,-0.007913675,0.0028752387,-0.6969101,-0.054647572,-9.827807
280.64885689,-0.015651926,-0.0057831462,0.0028752387,-0.69212,-0.030697376,-9.775118
280.6547108,-0.014586663,-0.0068484107,0.0018099733,-0.7017001,0.0076229367,-9.760748
280.6587512,-0.013521398,-0.00897894,0.0018099733,-0.68014497,-0.01153722,-9.775118
280.66474632,-0.015651926,-0.00897894,0.0028752387,-0.68972504,-0.018722279,-9.832598
280.66910788,-0.012456134,-0.00897894,0.0018099733,-0.6633798,0.0028328972,-9.846968
280.67474629,-0.0113908695,-0.00897894,0.0050057694,-0.68733,0.0076229367,-9.858943
280.67914312,-0.0113908695,-0.0068484107,0.003940504,-0.72086024,-0.033092394,-9.818228
280.68474635,-0.012456134,-0.0068484107,0.003940504,-0.70649016,-0.05704259,-9.779908
280.68892316,-0.012456134,-0.0057831462,0.003940504,-0.69451505,0.0076229367,-9.753563
280.69467057,-0.015651926,-0.0068484107,0.0050057694,-0.72086024,0.026783096,-9.770328
280.69883153,-0.014586663,-0.007913675,0.0050057694,-0.7088852,-0.028302357,-9.851758
280.70474943,-0.0113908695,-0.007913675,0.0050057694,-0.67295986,-0.006747181,-9.861338
280.70898654,-0.012456134,-0.007913675,0.0050057694,-0.67295986,-0.006747181,-9.834992
280.71474591,-0.016717192,-0.007913675,0.006071031,-0.69212,-0.023512317,-9.808648
280.71900661,-0.015651926,-0.007913675,0.0050057694,-0.72086024,-0.05704259,-9.770328
280.72474603,-0.015651926,-0.0057831462,0.003940504,-0.72804534,-0.030697376,-9.7990675
280.72896801,-0.014586663,-0.0057831462,0.0028752387,-0.68733,-0.01153722,-9.825413
280.73468594,-0.016717192,-0.007913675,0.0028752387,-0.67295986,-0.01632726,-9.858943
280.73884462,-0.015651926,-0.004717882,0.0050057694,-0.6514047,-0.042672474,-9.858943
280.74474556,-0.02097825,-0.0057831462,0.0028752387,-0.70649016,-0.023512317,-9.839783
280.74917246,-0.015651926,-0.0057831462,0.0018099733,-0.68253994,-0.035487417,-9.813437
280.75474595,-0.013521398,-0.0068484107,0.0028752387,-0.68253994,-0.040277455,-9.770328
280.7588546,-0.014586663,-0.007913675,0.0028752387,-0.67774993,-0.028302357,-9.760748
280.76474647,-0.0113908695,-0.00897894,0.0028752387,-0.70649016,-0.0043521617,-9.834992
280.76901048,-0.008195076,-0.007913675,0.003940504,-0.684935,0.010017957,-9.880498
280.77474385,-0.014586663,-0.0057831462,0.006071031,-0.68253994,-0.01393224,-9.880498
280.77908161,-0.014586663,-0.0068484107,0.0050057694,-0.67295986,-0.021117298,-9.849362
280.78474654,-0.009260341,-0.007913675,0.0050057694,-0.67295986,-0.006747181,-9.775118
280.78902197,-0.009260341,-0.0068484107,0.0050057694,-0.7136752,-0.018722279,-9.770328
280.7947466,-0.0113908695,-0.0068484107,0.0050057694,-0.7017001,-0.023512317,-9.7990675
280.79885164,-0.0113908695,-0.0057831462,0.003940504,-0.6969101,0.0076229367,-9.827807
280.80474501,-0.008195076,-0.007913675,0.0050057694,-0.64421964,0.0076229367,-9.830202
280.80923557,-0.009260341,-0.007913675,0.0050057694,-0.7017001,-0.018722279,-9.837388
280.81463869,-0.012456134,-0.0057831462,0.0050057694,-0.6969101,-0.037882436,-9.832598
280.81881364,-0.010325605,-0.004717882,0.0050057694,-0.71128017,-0.01632726,-9.770328
280.82474648,-0.009260341,-0.0057831462,0.0028752387,-0.6969101,-0.023512317,-9.779908
280.82914169,-0.0113908695,-0.0068484107,0.003940504,-0.68733,-0.028302357,-9.789488
280.83457212,-0.009260341,-0.0057831462,0.003940504,-0.68253994,0.0028328972,-9.842177
280.83887484,-0.012456134,-0.0036526173,0.006071031,-0.66816986,0.0028328972,-9.870918
280.84459184,-0.012456134,-0.0036526173,0.0050057694,-0.68733,-0.028302357,-9.842177
280.84889734,-0.012456134,-0.0057831462,0.0050057694,-0.67774993,-0.049857534,-9.789488
280.85474691,-0.010325605,-0.0057831462,0.0028752387,-0.71128017,-0.037882436,-9.746377
280.85905862,-0.0071298117,-0.0068484107,0.0050057694,-0.6969101,-0.037882436,-9.770328
280.86474759,-0.010325605,-0.004717882,0.0050057694,-0.71846527,-0.01393224,-9.827807
280.86886685,-0.009260341,-0.0068484107,0.0050057694,-0.6537997,-0.028302357,-9.856547
280.87474664,-0.0113908695,-0.0057831462,0.006071031,-0.67774993,-0.0043521617,-9.842177
280.87918252,-0.010325605,-0.004717882,0.006071031,-0.66816986,-0.05704259,-9.839783
280.88474623,-0.008195076,-0.0057831462,0.0050057694,-0.69451505,-0.06901769,-9.803858
280.8889766,-0.017782457,-0.004717882,0.006071031,-0.69212,-0.052252553,-9.779908
280.89474886,-0.012456134,-0.004717882,0.006071031,-0.7017001,-0.033092394,-9.760748
280.89890698,-0.010325605,-0.0057831462,0.0050057694,-0.69451505,-0.01393224,-9.808648
280.90454768,-0.013521398,-0.0057831462,0.0050057694,-0.66098475,-0.030697376,-9.856547
280.90893258,-0.010325605,-0.0057831462,0.003940504,-0.67774993,-0.01632726,-9.851758
280.91474644,-0.012456134,-0.004717882,0.0050057694,-0.6585898,-0.040277455,-9.842177
280.91911246,-0.0113908695,-0.0036526173,0.006071031,-0.71607023,-0.05704259,-9.770328
280.9247458,-0.012456134,-0.0057831462,0.006071031,-0.684935,-0.052252553,-9.782303
280.92894558,-0.009260341,-0.004717882,0.0050057694,-0.70649016,-0.01153722,-9.796673
280.93474511,-0.009260341,-0.0057831462,0.0028752387,-0.6969101,-0.01632726,-9.858943
280.93899026,-0.01884772,-0.004717882,0.0071362965,-0.66816986,-0.052252553,-9.861338
280.94474542,-0.015651926,-0.0057831462,0.0071362965,-0.68253994,-0.037882436,-9.827807
280.94895262,-0.014586663,-0.004717882,0.0071362965,-0.67295986,-0.042672474,-9.823017
280.95474704,-0.010325605,-0.004717882,0.006071031,-0.7017001,-0.042672474,-9.784698
280.95908,-0.009260341,-0.0057831462,0.0050057694,-0.7040951,-0.07380773,-9.803858
280.96474844,-0.0113908695,-0.0057831462,0.0050057694,-0.71607023,-0.025907338,-9.803858
280.96904012,-0.010325605,-0.007913675,0.0050057694,-0.68253994,-0.001957142,-9.842177
280.97474526,-0.002868753,-0.0057831462,0.006071031,-0.67774993,-0.035487417,-9.875708
280.97901625,-0.017782457,-0.004717882,0.006071031,-0.68253994,-0.07620275,-9.870918
280.98474511,-0.015651926,-0.004717882,0.0071362965,-0.68253994,-0.05704259,-9.823017
280.98914205,-0.012456134,-0.004717882,0.0071362965,-0.6969101,-0.047462516,-9.763143
280.99474675,-0.014586663,-0.0057831462,0.0071362965,-0.70649016,-0.049857534,-9.779908
280.99911058,-0.017782457,-0.0057831462,0.009266827,-0.68972504,-0.045067493,-9.827807
281.00474739,-0.0113908695,-0.0057831462,0.0050057694,-0.66816986,-0.018722279,-9.861338
281.00886093,-0.0071298117,-0.004717882,0.006071031,-0.68733,-0.025907338,-9.846968
281.01474674,-0.010325605,-0.004717882,0.0071362965,-0.68253994,-0.06422765,-9.830202
281.01904202,-0.009260341,-0.0036526173,0.008201562,-0.68014497,-0.06901769,-9.787093
281.02465729,-0.015651926,-0.004717882,0.0071362965,-0.67295986,-0.030697376,-9.784698
281.02886117,-0.013521398,-0.004717882,0.0071362965,-0.6969101,-0.01632726,-9.803858
281.03474548,-0.012456134,-0.0057831462,0.006071031,-0.68253994,-0.042672474,-9.832598
281.03911277,-0.0113908695,-0.0057831462,0.006071031,-0.69212,-0.018722279,-9.842177
281.04465841,-0.01884772,-0.004717882,0.008201562,-0.6514047,-0.033092394,-9.858943
281.04884143,-0.010325605,-0.004717882,0.008201562,-0.7017001,-0.052252553,-9.823017
281.05463364,-0.013521398,-0.0036526173,0.008201562,-0.69212,-0.066622674,-9.763143
281.05884643,-0.0113908695,-0.0057831462,0.0071362965,-0.6993051,-0.030697376,-9.751167
281.06474868,-0.015651926,-0.004717882,0.009266827,-0.70649016,-0.01393224,-9.782303
281.06903746,-0.0113908695,-0.0057831462,0.0071362965,-0.6585898,-0.037882436,-9.863733
281.07474701,-0.015651926,-0.004717882,0.008201562,-0.6753549,-0.023512317,-9.885288
281.07917594,-0.02097825,-0.0025873529,0.008201562,-0.67774993,-0.037882436,-9.851758
281.08474344,-0.015651926,-0.004717882,0.008201562,-0.7256503,-0.037882436,-9.794278
281.08914244,-0.012456134,-0.0036526173,0.0071362965,-0.68733,-0.05943761,-9.765537
281.09468747,-0.014586663,-0.004717882,0.008201562,-0.7304404,-0.049857534,-9.772722
281.09887635,-0.014586663,-0.0025873529,0.008201562,-0.6993051,-0.01632726,-9.7990675
281.10467436,-0.015651926,-0.004717882,0.010332089,-0.66816986,0.010017957,-9.813437
281.10883345,-0.012456134,-0.004717882,0.0071362965,-0.66816986,-0.05704259,-9.849362
281.11474733,-0.02097825,-0.0025873529,0.009266827,-0.68253994,-0.05704259,-9.846968
281.11886789,-0.014586663,-0.004717882,0.009266827,-0.71128017,-0.01632726,-9.815832
281.12474746,-0.0113908695,-0.0036526173,0.008201562,-0.7256503,-0.023512317,-9.770328
281.12914747,-0.012456134,-0.004717882,0.008201562,-0.7352304,-0.05704259,-9.775118
281.13457275,-0.017782457,-0.0025873529,0.008201562,-0.6753549,-0.01632726,-9.820622
281.13911968,-0.015651926,-0.0025873529,0.009266827,-0.6514047,0.026783096,-9.851758
281.14468368,-0.013521398,-0.0036526173,0.009266827,-0.66098475,-0.01153722,-9.861338
281.14893333,-0.013521398,-0.0036526173,0.008201562,-0.67774993,-0.07859778,-9.834992
281.15474627,-0.014586663,-0.0036526173,0.0071362965,-0.67774993,-0.035487417,-9.765537
281.15890119,-0.013521398,-0.0057831462,0.008201562,-0.69212,0.010017957,-9.765537
281.16474759,-0.0113908695,-0.0057831462,0.008201562,-0.7256503,-0.018722279,-9.813437
281.16887185,-0.0113908695,-0.0036526173,0.0071362965,-0.68733,-0.001957142,-9.849362
281.17474692,-0.017782457,-0.0015220884,0.009266827,-0.6657748,0.014807995,-9.856547
281.17921683,-0.022043515,-0.0025873529,0.009266827,-0.6490097,-0.006747181,-9.861338
281.18465817,-0.015651926,-0.0025873529,0.008201562,-0.7040951,-0.033092394,-9.837388
281.18883593,-0.0113908695,-0.004717882,0.009266827,-0.6969101,-0.040277455,-9.801463
281.19474724,-0.015651926,-0.0025873529,0.009266827,-0.7352304,0.0028328972,-9.760748
281.1992715,-0.015651926,-0.0025873529,0.0071362965,-0.68014497,-0.001957142,-9.794278
281.20466783,-0.01884772,-0.004717882,0.009266827,-0.69451505,-0.01153722,-9.839783
281.20891323,-0.014586663,-0.004717882,0.010332089,-0.6633798,-0.01632726,-9.873313
281.214747,-0.014586663,-0.0036526173,0.011397354,-0.71128017,-0.01632726,-9.846968
281.21882298,-0.0071298117,-0.004717882,0.009266827,-0.6969101,-0.047462516,-9.803858
281.22474727,-0.015651926,-0.0025873529,0.010332089,-0.69212,-0.05704259,-9.772722
281.22893759,-0.016717192,-0.004717882,0.008201562,-0.6969101,-0.023512317,-9.779908
281.23474789,-0.014586663,-0.0057831462,0.009266827,-0.6993051,0.00043787766,-9.837388
281.23925416,-0.015651926,-0.0025873529,0.008201562,-0.71128017,-0.021117298,-9.856547
281.24474663,-0.01884772,-0.0015220884,0.010332089,-0.6585898,-0.037882436,-9.844573
281.24902088,-0.017782457,-0.0015220884,0.009266827,-0.6537997,-0.030697376,-9.823017
281.25475048,-0.013521398,-0.0025873529,0.009266827,-0.68253994,-0.07141271,-9.784698
281.25907464,-0.014586663,-0.0015220884,0.008201562,-0.70649016,-0.052252553,-9.767933
281.26478622,-0.013521398,-0.0025873529,0.008201562,-0.72086024,-0.025907338,-9.777513
281.26891205,-0.017782457,-0.0036526173,0.009266827,-0.68253994,-0.001957142,-9.813437
281.27474962,-0.014586663,-0.0036526173,0.010332089,-0.6633798,-0.01632726,-9.846968
281.27916763,-0.016717192,-0.004717882,0.010332089,-0.684935,-0.030697376,-9.885288
281.28474724,-0.017782457,-0.0025873529,0.011397354,-0.70649016,-0.033092394,-9.827807
281.28901375,-0.010325605,-0.0015220884,0.010332089,-0.71846527,-0.045067493,-9.779908
281.29466822,-0.015651926,-0.00045682397,0.011397354,-0.6969101,-0.05704259,-9.765537
281.29883094,-0.015651926,-0.0015220884,0.011397354,-0.69212,-0.025907338,-9.782303
281.30474731,-0.0113908695,-0.004717882,0.011397354,-0.6969101,-0.01632726,-9.830202
281.30909878,-0.01884772,-0.0015220884,0.01246262,-0.68733,-0.023512317,-9.830202
281.31475016,-0.010325605,-0.0015220884,0.010332089,-0.69212,-0.033092394,-9.830202
281.31895273,-0.015651926,-0.0015220884,0.010332089,-0.69451505,-0.061832633,-9.808648
281.32474729,-0.014586663,-0.0015220884,0.009266827,-0.69212,-0.049857534,-9.789488
281.32899287,-0.015651926,-0.0015220884,0.011397354,-0.7017001,-0.033092394,-9.775118
281.3347467,-0.014586663,-0.0015220884,0.010332089,-0.71607023,-0.030697376,-9.7990675
281.33896071,-0.013521398,-0.0025873529,0.010332089,-0.6657748,-0.018722279,-9.842177
281.34474745,-0.015651926,-0.0025873529,0.01246262,-0.6537997,-0.021117298,-9.856547
281.34923827,-0.013521398,-0.004717882,0.011397354,-0.67295986,-0.049857534,-9.846968
281.35474912,-0.014586663,-0.0025873529,0.011397354,-0.71846527,-0.061832633,-9.7918825
281.35899356,-0.013521398,-0.00045682397,0.010332089,-0.7352304,-0.040277455,-9.755958
281.36475235,-0.013521398,-0.0015220884,0.009266827,-0.7017001,-0.025907338,-9.775118
281.36904436,-0.014586663,-0.0036526173,0.013527885,-0.6633798,-0.01393224,-9.837388
281.37474586,-0.015651926,-0.0025873529,0.01246262,-0.6585898,-0.01632726,-9.882893
281.37900532,-0.016717192,-0.0025873529,0.014593147,-0.69212,-0.01632726,-9.868523
281.38474699,-0.012456134,-0.0015220884,0.011397354,-0.6969101,-0.033092394,-9.789488
281.38902216,-0.012456134,-0.0015220884,0.011397354,-0.6969101,-0.033092394,-9.789488
281.39474701,-0.013521398,-0.0025873529,0.013527885,-0.7256503,-0.006747181,-9.803858
281.39892141,-0.013521398,-0.0025873529,0.013527885,-0.7256503,-0.006747181,-9.803858
281.40474564,-0.01884772,0.0006084405,0.015658412,-0.65619475,-0.025907338,-9.851758
281.40923048,-0.01884772,0.0006084405,0.015658412,-0.65619475,-0.025907338,-9.851758
281.41474665,-0.017782457,0.0006084405,0.013527885,-0.68972504,-0.052252553,-9.842177
281.41890968,-0.017782457,0.0006084405,0.013527885,-0.68972504,-0.052252553,-9.842177
281.4247458,-0.013521398,0.0006084405,0.011397354,-0.7352304,-0.006747181,-9.772722
281.42899081,-0.013521398,0.0006084405,0.011397354,-0.7352304,-0.006747181,-9.772722
281.4347466,-0.012456134,-0.0015220884,0.01246262,-0.64421964,-0.018722279,-9.878103
281.43901,-0.012456134,-0.0015220884,0.01246262,-0.64421964,-0.018722279,-9.878103
281.44458074,-0.013521398,-0.0025873529,0.014593147,-0.66816986,-0.030697376,-9.851758
281.4489298,-0.013521398,-0.0025873529,0.014593147,-0.66816986,-0.030697376,-9.851758
281.45475797,-0.013521398,0.0006084405,0.014593147,-0.68253994,-0.023512317,-9.755958
281.45916416,-0.013521398,0.0006084405,0.014593147,-0.68253994,-0.023512317,-9.755958
281.4647475,-0.010325605,-0.0036526173,0.014593147,-0.71607023,0.017203014,-9.823017
281.46907241,-0.010325605,-0.0036526173,0.014593147,-0.71607023,0.017203014,-9.823017
281.47474528,-0.017782457,0.0006084405,0.015658412,-0.68733,-0.018722279,-9.846968
281.47917076,-0.017782457,0.0006084405,0.015658412,-0.68733,-0.018722279,-9.846968
281.4846638,-0.008195076,-0.0015220884,0.015658412,-0.66816986,-0.033092394,-9.796673
281.48883968,-0.008195076,-0.0015220884,0.015658412,-0.66816986,-0.033092394,-9.796673
281.49474556,-0.012456134,-0.0015220884,0.016723678,-0.71607023,-0.01632726,-9.755958
281.49903329,-0.012456134,-0.0015220884,0.016723678,-0.71607023,-0.01632726,-9.755958
281.50450266,-0.0113908695,-0.00045682397,0.014593147,-0.6490097,-0.01393224,-9.856547
281.50894613,-0.0113908695,-0.00045682397,0.014593147,-0.6490097,-0.01393224,-9.856547
281.51476016,-0.013521398,-0.00045682397,0.015658412,-0.68253994,-0.047462516,-9.834992
281.5192109,-0.010325605,-0.0015220884,0.017788943,-0.7017001,-0.01393224,-9.765537
281.52474705,-0.0113908695,-0.00045682397,0.013527885,-0.68972504,-0.01153722,-9.770328
281.52893064,-0.0113908695,-0.00045682397,0.013527885,-0.68972504,-0.01153722,-9.770328
281.53474721,-0.0113908695,-0.0015220884,0.015658412,-0.66816986,0.00043787766,-9.839783
281.53892575,-0.012456134,-0.0015220884,0.015658412,-0.6633798,-0.006747181,-9.837388
281.54474647,-0.012456134,-0.0015220884,0.014593147,-0.67056483,-0.047462516,-9.842177
281.548865,-0.0113908695,0.001673705,0.015658412,-0.66098475,-0.042672474,-9.815832
281.55474645,-0.016717192,0.0006084405,0.016723678,-0.67774993,-0.033092394,-9.767933
281.55922333,-0.015651926,0.0006084405,0.015658412,-0.7017001,-0.018722279,-9.775118
281.56464726,-0.012456134,-0.00045682397,0.015658412,-0.6969101,-0.025907338,-9.7918825
281.56894964,-0.013521398,-0.0015220884,0.015658412,-0.6537997,-0.028302357,-9.866128
281.57474656,-0.0113908695,-0.0025873529,0.017788943,-0.62266445,-0.0091422,-9.873313
281.57914478,-0.014586663,-0.00045682397,0.016723678,-0.6753549,-0.028302357,-9.870918
281.58474719,-0.02097825,0.0006084405,0.016723678,-0.68733,-0.05943761,-9.803858
281.58887948,-0.014586663,0.0006084405,0.015658412,-0.69451505,-0.045067493,-9.763143
281.59474751,-0.014586663,-0.00045682397,0.015658412,-0.68733,-0.01632726,-9.775118
281.59907996,-0.014586663,-0.0025873529,0.017788943,-0.6753549,-0.01632726,-9.832598
281.60474859,-0.0113908695,-0.0015220884,0.017788943,-0.67295986,-0.037882436,-9.866128
281.60881753,-0.009260341,-0.00045682397,0.015658412,-0.6585898,-0.028302357,-9.846968
281.61474576,-0.012456134,-0.00045682397,0.015658412,-0.6514047,-0.018722279,-9.842177
281.61918801,-0.009260341,-0.00045682397,0.015658412,-0.67774993,-0.052252553,-9.823017
281.62465157,-0.012456134,-0.0015220884,0.016723678,-0.68733,-0.05704259,-9.7990675
281.62887758,-0.012456134,-0.0015220884,0.016723678,-0.6969101,-0.01632726,-9.789488
281.63474601,-0.0113908695,-0.0015220884,0.014593147,-0.68253994,-0.006747181,-9.827807
281.63902065,-0.013521398,-0.0025873529,0.015658412,-0.6466147,-0.028302357,-9.870918
281.6447475,-0.013521398,-0.00045682397,0.016723678,-0.6466147,-0.052252553,-9.856547
281.64887333,-0.015651926,-0.00045682397,0.015658412,-0.68253994,-0.042672474,-9.825413
281.65459162,-0.013521398,-0.00045682397,0.015658412,-0.67295986,-0.042672474,-9.777513
281.65886594,-0.012456134,-0.00045682397,0.017788943,-0.69212,-0.05704259,-9.755958
281.66474715,-0.013521398,-0.0015220884,0.017788943,-0.66816986,-0.049857534,-9.811043
281.66912092,-0.015651926,-0.0036526173,0.016723678,-0.68733,-0.01153722,-9.858943
281.67474797,-0.013521398,-0.0015220884,0.016723678,-0.66816986,-0.023512317,-9.854153
281.67905023,-0.010325605,-0.0015220884,0.017788943,-0.69212,-0.042672474,-9.832598
281.68474713,-0.014586663,-0.00045682397,0.015658412,-0.6753549,-0.061832633,-9.820622
281.68894854,-0.012456134,-0.0025873529,0.017788943,-0.66098475,-0.042672474,-9.775118
281.69478996,-0.0113908695,-0.0025873529,0.014593147,-0.6969101,-0.042672474,-9.765537
281.69884964,-0.014586663,-0.0015220884,0.016723678,-0.68733,-0.049857534,-9.801463
281.7047458,-0.0113908695,-0.0036526173,0.017788943,-0.67774993,-0.033092394,-9.827807
281.70914436,-0.015651926,-0.00045682397,0.015658412,-0.62984955,-0.023512317,-9.856547
281.71448789,-0.008195076,-0.0025873529,0.015658412,-0.67295986,-0.066622674,-9.854153
281.71887617,-0.009260341,-0.0015220884,0.015658412,-0.68733,-0.080992796,-9.7990675
281.724748,-0.015651926,-0.0015220884,0.016723678,-0.69451505,-0.040277455,-9.763143
281.72920969,-0.015651926,-0.00045682397,0.015658412,-0.67056483,-0.021117298,-9.779908
281.73464126,-0.017782457,-0.0025873529,0.017788943,-0.6633798,-0.021117298,-9.827807
281.73891727,-0.009260341,-0.004717882,0.016723678,-0.66098475,-0.023512317,-9.861338
281.74475191,-0.012456134,-0.0036526173,0.017788943,-0.6490097,-0.01632726,-9.839783
281.74916801,-0.01884772,-0.0015220884,0.018854205,-0.68253994,-0.040277455,-9.811043
281.75474708,-0.017782457,-0.0036526173,0.017788943,-0.68253994,-0.07141271,-9.784698
281.75885766,-0.014586663,-0.0025873529,0.017788943,-0.69451505,-0.045067493,-9.775118
281.76469159,-0.013521398,-0.0025873529,0.017788943,-0.7088852,-0.01153722,-9.772722
281.76880528,-0.015651926,-0.0036526173,0.015658412,-0.67056483,-0.018722279,-9.834992
281.77474718,-0.017782457,-0.0025873529,0.017788943,-0.6537997,-0.01153722,-9.856547
281.77926367,-0.014586663,-0.0025873529,0.016723678,-0.6514047,-0.01632726,-9.851758
281.78465199,-0.0071298117,-0.0015220884,0.016723678,-0.65619475,-0.042672474,-9.832598
281.78895524,-0.0113908695,-0.0036526173,0.016723678,-0.6969101,-0.05943761,-9.770328
281.79474874,-0.010325605,-0.0057831462,0.014593147,-0.6969101,-0.037882436,-9.758352
281.79905379,-0.016717192,-0.0025873529,0.015658412,-0.7017001,-0.018722279,-9.779908
281.80459526,-0.009260341,-0.004717882,0.015658412,-0.6633798,-0.035487417,-9.863733
281.80895114,-0.012456134,-0.0025873529,0.016723678,-0.6466147,-0.023512317,-9.875708
281.81474751,-0.012456134,-0.004717882,0.014593147,-0.64421964,-0.037882436,-9.858943
281.81897548,-0.017782457,-0.0025873529,0.017788943,-0.67295986,-0.05943761,-9.818228
281.82466621,-0.010325605,-0.0025873529,0.014593147,-0.68733,-0.05704259,-9.789488
281.82886548,-0.017782457,-0.0025873529,0.015658412,-0.68253994,-0.033092394,-9.803858
281.83474772,-0.017782457,-0.0036526173,0.016723678,-0.68733,-0.006747181,-9.827807
281.83899169,-0.013521398,-0.0036526173,0.014593147,-0.6633798,-0.006747181,-9.844573
281.84474834,-0.012456134,-0.0036526173,0.015658412,-0.6394296,-0.01153722,-9.851758
281.84885622,-0.013521398,-0.0036526173,0.015658412,-0.6633798,-0.047462516,-9.856547
281.85474713,-0.012456134,-0.0036526173,0.016723678,-0.6633798,-0.028302357,-9.808648
281.85922448,-0.013521398,-0.0036526173,0.015658412,-0.68733,-0.023512317,-9.777513
281.86450319,-0.016717192,-0.0036526173,0.014593147,-0.70649016,-0.018722279,-9.770328
281.8689378,-0.012456134,-0.0057831462,0.016723678,-0.69212,0.0076229367,-9.839783
281.87474811,-0.0113908695,-0.0036526173,0.015658412,-0.66816986,0.0076229367,-9.854153
281.87911992,-0.016717192,-0.0036526173,0.016723678,-0.66816986,-0.01153722,-9.861338
281.88474725,-0.015651926,-0.0036526173,0.015658412,-0.67056483,-0.033092394,-9.823017
281.88908598,-0.013521398,-0.0015220884,0.016723678,-0.67056483,-0.052252553,-9.784698
281.89474799,-0.013521398,-0.0025873529,0.013527885,-0.67056483,-0.018722279,-9.763143
281.89901348,-0.016717192,-0.0036526173,0.01246262,-0.68014497,-0.006747181,-9.782303
281.9046765,-0.012456134,-0.0036526173,0.01246262,-0.68733,-0.023512317,-9.823017
281.9088454,-0.0113908695,-0.0057831462,0.013527885,-0.6537997,-0.01632726,-9.846968
281.91474753,-0.017782457,-0.0036526173,0.013527885,-0.6537997,-0.033092394,-9.839783
281.91926282,-0.015651926,-0.004717882,0.013527885,-0.6537997,-0.042672474,-9.818228
281.92458162,-0.016717192,-0.004717882,0.011397354,-0.68733,-0.049857534,-9.784698
281.92888436,-0.0113908695,-0.004717882,0.01246262,-0.69451505,-0.033092394,-9.782303
281.93474656,-0.019912984,-0.0036526173,0.011397354,-0.68733,0.014807995,-9.789488
281.93909477,-0.015651926,-0.004717882,0.010332089,-0.67295986,-0.001957142,-9.856547
281.94462166,-0.015651926,-0.004717882,0.011397354,-0.6466147,-0.021117298,-9.868523
281.94883057,-0.013521398,-0.0057831462,0.015658412,-0.69451505,-0.01393224,-9.818228
281.9547493,-0.009260341,-0.0025873529,0.011397354,-0.68014497,-0.030697376,-9.777513
281.95884928,-0.013521398,-0.0036526173,0.013527885,-0.69212,-0.021117298,-9.746377
281.9647488,-0.013521398,-0.0057831462,0.01246262,-0.6969101,-0.028302357,-9.782303
281.96914484,-0.012456134,-0.0057831462,0.01246262,-0.69212,0.021993056,-9.827807
281.97474865,-0.013521398,-0.0057831462,0.013527885,-0.6969101,0.017203014,-9.863733
281.97894566,-0.016717192,-0.004717882,0.01246262,-0.67774993,-0.023512317,-9.849362
281.98474592,-0.014586663,-0.0036526173,0.011397354,-0.68733,-0.033092394,-9.842177
281.98902617,-0.014586663,-0.0036526173,0.010332089,-0.6753549,-0.047462516,-9.789488
281.99474882,-0.0113908695,-0.0025873529,0.011397354,-0.6993051,-0.028302357,-9.767933
281.99898984,-0.015651926,-0.004717882,0.010332089,-0.67774993,-0.028302357,-9.777513
282.00474794,-0.017782457,-0.004717882,0.010332089,-0.69212,0.0028328972,-9.808648
282.00886913,-0.012456134,-0.0057831462,0.0071362965,-0.64421964,-0.01153722,-9.861338
282.01461945,-0.012456134,-0.004717882,0.009266827,-0.67295986,-0.028302357,-9.866128
282.01886669,-0.014586663,-0.0036526173,0.011397354,-0.67056483,-0.05704259,-9.842177
282.02474985,-0.015651926,-0.0036526173,0.009266827,-0.67295986,-0.047462516,-9.784698
282.02916881,-0.015651926,-0.0057831462,0.008201562,-0.7017001,-0.052252553,-9.784698
282.03464645,-0.013521398,-0.004717882,0.0071362965,-0.67774993,-0.037882436,-9.818228
282.03894327,-0.015651926,-0.004717882,0.008201562,-0.67295986,-0.006747181,-9.851758
282.04474915,-0.0113908695,-0.0057831462,0.009266827,-0.6514047,-0.021117298,-9.854153
282.04899884,-0.017782457,-0.0057831462,0.008201562,-0.68733,-0.030697376,-9.844573
282.05469532,-0.016717192,-0.0025873529,0.010332089,-0.684935,-0.05704259,-9.837388
282.05892916,-0.013521398,-0.0036526173,0.010332089,-0.67774993,-0.037882436,-9.7918825
282.0647484,-0.013521398,-0.0057831462,0.009266827,-0.71128017,-0.01632726,-9.784698
282.06910645,-0.012456134,-0.0057831462,0.010332089,-0.7040951,-0.028302357,-9.818228
282.07474874,-0.012456134,-0.004717882,0.010332089,-0.68733,0.010017957,-9.851758
282.07915626,-0.015651926,-0.0036526173,0.010332089,-0.65619475,0.021993056,-9.861338
282.08474677,-0.009260341,-0.0036526173,0.008201562,-0.6969101,-0.052252553,-9.846968
282.08901026,-0.012456134,-0.004717882,0.008201562,-0.67295986,-0.07859778,-9.813437
282.09474699,-0.016717192,-0.004717882,0.008201562,-0.70649016,-0.0091422,-9.736797
282.09911564,-0.013521398,-0.0057831462,0.0071362965,-0.7017001,-0.01632726,-9.775118
282.10474737,-0.017782457,-0.0036526173,0.009266827,-0.71128017,-0.037882436,-9.837388
282.10907165,-0.014586663,-0.004717882,0.008201562,-0.6585898,-0.021117298,-9.856547
282.11474775,-0.02097825,-0.0036526173,0.010332089,-0.6490097,0.010017957,-9.837388
282.11884673,-0.017782457,-0.004717882,0.008201562,-0.67774993,-0.035487417,-9.825413
282.12475243,-0.014586663,-0.0025873529,0.0071362965,-0.66816986,-0.09057287,-9.803858
282.129115,-0.015651926,-0.0025873529,0.0071362965,-0.7088852,-0.042672474,-9.770328
282.13474715,-0.019912984,-0.0057831462,0.006071031,-0.68253994,0.0076229367,-9.7918825
282.13887964,-0.015651926,-0.0057831462,0.0071362965,-0.68972504,-0.01153722,-9.832598
282.14474798,-0.017782457,-0.004717882,0.0071362965,-0.66098475,-0.05704259,-9.839783
282.14906753,-0.015651926,-0.004717882,0.0071362965,-0.66816986,-0.021117298,-9.846968
282.15475116,-0.008195076,-0.0036526173,0.0071362965,-0.6585898,-0.028302357,-9.832598
282.15886,-0.0113908695,-0.0057831462,0.008201562,-0.69212,-0.05943761,-9.758352
282.16458026,-0.01884772,-0.0036526173,0.0071362965,-0.69212,-0.05704259,-9.765537
282.1688521,-0.01884772,-0.0057831462,0.0071362965,-0.70649016,0.014807995,-9.794278
282.17474996,-0.012456134,-0.0057831462,0.006071031,-0.68253994,0.017203014,-9.842177
282.1792142,-0.015651926,-0.004717882,0.006071031,-0.66098475,-0.040277455,-9.870918
282.18474752,-0.0113908695,-0.004717882,0.0050057694,-0.67295986,-0.037882436,-9.842177
282.18887676,-0.016717192,-0.0036526173,0.0071362965,-0.67295986,-0.021117298,-9.794278
282.19474714,-0.012456134,-0.0036526173,0.006071031,-0.6969101,-0.049857534,-9.770328
282.19891416,-0.015651926,-0.0036526173,0.006071031,-0.68253994,-0.047462516,-9.784698
282.20474668,-0.0113908695,-0.0057831462,0.006071031,-0.68253994,0.0028328972,-9.808648
282.2090079,-0.013521398,-0.0057831462,0.0050057694,-0.6585898,0.012412976,-9.830202
282.21471376,-0.015651926,-0.004717882,0.0071362965,-0.6514047,-0.023512317,-9.851758
282.21890468,-0.009260341,-0.004717882,0.0050057694,-0.67056483,-0.066622674,-9.866128
282.22458446,-0.010325605,-0.0036526173,0.006071031,-0.6657748,-0.028302357,-9.820622
282.22891049,-0.009260341,-0.004717882,0.003940504,-0.70649016,-0.040277455,-9.784698
282.23474736,-0.012456134,-0.004717882,0.003940504,-0.68253994,-0.037882436,-9.777513
282.23931932,-0.017782457,-0.004717882,0.0050057694,-0.66816986,-0.01393224,-9.834992
282.24446764,-0.014586663,-0.0036526173,0.0050057694,-0.6418246,-0.001957142,-9.875708
282.24924867,-0.012456134,-0.004717882,0.006071031,-0.64421964,-0.037882436,-9.866128
282.25460921,-0.015651926,-0.0036526173,0.0071362965,-0.6585898,-0.047462516,-9.823017
282.25899133,-0.0039340183,-0.0057831462,0.0050057694,-0.684935,-0.040277455,-9.770328
282.26474778,-0.0113908695,-0.0068484107,0.003940504,-0.68733,-0.028302357,-9.784698
282.26891914,-0.013521398,-0.0068484107,0.006071031,-0.68972504,-0.023512317,-9.823017
282.27474815,-0.012456134,-0.007913675,0.0050057694,-0.68733,-0.018722279,-9.866128
282.27920402,-0.016717192,-0.0036526173,0.006071031,-0.6514047,0.0028328972,-9.856547
282.28463532,-0.023108779,-0.0036526173,0.0050057694,-0.66098475,-0.047462516,-9.849362
282.28890392,-0.009260341,-0.004717882,0.003940504,-0.66816986,-0.066622674,-9.834992
282.29474653,-0.010325605,-0.0068484107,0.0018099733,-0.68014497,-0.025907338,-9.772722
282.2989925,-0.010325605,-0.0068484107,0.0050057694,-0.68733,-0.023512317,-9.767933
282.30474597,-0.015651926,-0.0057831462,0.0050057694,-0.6993051,-0.025907338,-9.7918825
282.30919791,-0.015651926,-0.0057831462,0.0050057694,-0.6514047,-0.030697376,-9.854153
282.31474796,-0.012456134,-0.0068484107,0.003940504,-0.65619475,-0.040277455,-9.842177
282.3189984,-0.012456134,-0.0068484107,0.003940504,-0.65619475,-0.040277455,-9.842177
282.32474812,-0.014586663,-0.007913675,0.0050057694,-0.68253994,-0.042672474,-9.760748
282.32894809,-0.014586663,-0.007913675,0.0050057694,-0.68253994,-0.042672474,-9.760748
282.33467817,-0.012456134,-0.0068484107,0.0028752387,-0.6514047,-0.042672474,-9.842177
282.33890916,-0.012456134,-0.0068484107,0.0028752387,-0.6514047,-0.042672474,-9.842177
282.34475028,-0.013521398,-0.0068484107,0.0050057694,-0.6585898,-0.033092394,-9.837388
282.34895234,-0.013521398,-0.0068484107,0.0050057694,-0.6585898,-0.033092394,-9.837388
282.35476064,-0.013521398,-0.0068484107,0.0018099733,-0.6753549,-0.05943761,-9.784698
282.35912152,-0.013521398,-0.0068484107,0.0018099733,-0.6753549,-0.05943761,-9.784698
282.36475001,-0.015651926,-0.0068484107,0.003940504,-0.6753549,-0.01153722,-9.770328
282.36911232,-0.015651926,-0.0068484107,0.003940504,-0.6753549,-0.01153722,-9.770328
282.37475,-0.015651926,-0.00897894,0.003940504,-0.6537997,-0.033092394,-9.870918
282.3791392,-0.015651926,-0.00897894,0.003940504,-0.6537997,-0.033092394,-9.870918
282.38461484,-0.014586663,-0.007913675,0.0050057694,-0.66816986,-0.042672474,-9.834992
282.38886968,-0.014586663,-0.007913675,0.0050057694,-0.66816986,-0.042672474,-9.834992
282.39474728,-0.017782457,-0.007913675,0.003940504,-0.67774993,-0.042672474,-9.763143
282.39906716,-0.017782457,-0.007913675,0.003940504,-0.67774993,-0.042672474,-9.763143
282.40465807,-0.01884772,-0.007913675,0.003940504,-0.6537997,-0.001957142,-9.844573
282.4088376,-0.01884772,-0.007913675,0.003940504,-0.6537997,-0.001957142,-9.844573
282.41475353,-0.015651926,-0.0068484107,0.0050057694,-0.64421964,-0.06422765,-9.851758
282.41910516,-0.015651926,-0.0068484107,0.0050057694,-0.64421964,-0.06422765,-9.851758
282.42465048,-0.017782457,-0.00897894,0.0028752387,-0.66816986,-0.045067493,-9.784698
282.42882261,-0.017782457,-0.00897894,0.0028752387,-0.66816986,-0.045067493,-9.784698
282.43474869,-0.013521398,-0.00897894,0.0018099733,-0.68972504,-0.023512317,-9.803858
282.43891048,-0.013521398,-0.00897894,0.0018099733,-0.68972504,-0.023512317,-9.803858
282.44474771,-0.01884772,-0.00897894,0.0028752387,-0.6274545,-0.01393224,-9.854153
282.44907172,-0.010325605,-0.010044204,0.003940504,-0.6514047,-0.07141271,-9.866128
282.45474648,-0.010325605,-0.010044204,0.0028752387,-0.69212,-0.061832633,-9.7918825
282.45918106,-0.006064547,-0.0111094685,0.003940504,-0.68253994,-0.023512317,-9.770328
282.4646808,-0.015651926,-0.00897894,0.003940504,-0.7088852,-0.023512317,-9.787093
282.46890769,-0.013521398,-0.010044204,0.0018099733,-0.6585898,-0.033092394,-9.858943
282.47474795,-0.016717192,-0.0111094685,0.003940504,-0.64421964,-0.01393224,-9.882893
282.47924048,-0.014586663,-0.00897894,0.0007447116,-0.6514047,-0.0043521617,-9.856547
282.48470539,-0.015651926,-0.00897894,0.0050057694,-0.67295986,-0.040277455,-9.837388
282.4888448,-0.017782457,-0.00897894,0.0018099733,-0.68972504,-0.05943761,-9.796673
282.49475821,-0.02097825,-0.010044204,0.003940504,-0.65619475,-0.028302357,-9.782303
282.49895218,-0.015651926,-0.0111094685,0.0028752387,-0.6969101,0.012412976,-9.777513
282.50474753,-0.01884772,-0.0111094685,0.0028752387,-0.6753549,-0.028302357,-9.837388
282.5088808,-0.01884772,-0.00897894,0.0018099733,-0.67774993,-0.01632726,-9.846968
282.51474872,-0.017782457,-0.007913675,0.0018099733,-0.65619475,-0.018722279,-9.868523
282.51921564,-0.0113908695,-0.010044204,0.0018099733,-0.66816986,-0.030697376,-9.832598
282.52469032,-0.012456134,-0.0111094685,0.0007447116,-0.69212,-0.047462516,-9.789488
282.52891752,-0.019912984,-0.0111094685,0.003940504,-0.69451505,-0.01632726,-9.763143
282.53474752,-0.014586663,-0.0111094685,0.003940504,-0.7017001,0.0076229367,-9.794278
282.5390342,-0.014586663,-0.012174733,0.0028752387,-0.67056483,-0.033092394,-9.856547
282.5446976,-0.016717192,-0.010044204,0.0028752387,-0.6633798,-0.037882436,-9.856547
282.54881836,-0.009260341,-0.0111094685,-0.00032055378,-0.6633798,-0.033092394,-9.832598
282.55474778,-0.019912984,-0.007913675,0.003940504,-0.7136752,-0.042672474,-9.784698
